"Time (s)","Acceleration x (m/s^2)","Acceleration y (m/s^2)","Acceleration z (m/s^2)"
0.000000000E0,-1.137054265E-1,5.884948000E-2,-9.937047958E0
3.998437000E-3,-1.147876084E-1,6.546705216E-2,-9.933810234E0
7.998437000E-3,-1.109377295E-1,6.077441573E-2,-9.921054840E0
1.200000000E-2,-1.084860712E-1,6.355168670E-2,-9.920921326E0
1.600000000E-2,-1.208976060E-1,7.414364070E-2,-9.917079926E0
1.999843700E-2,-1.234067306E-1,6.849332154E-2,-9.916256905E0
2.399843700E-2,-1.213860214E-1,6.585012376E-2,-9.911248207E0
2.799843700E-2,-1.299285442E-1,7.042783499E-2,-9.900847435E0
3.200000000E-2,-1.360193938E-1,4.974193498E-2,-9.928697586E0
3.599843700E-2,-1.130446270E-1,4.980897158E-2,-9.919791222E0
3.999843700E-2,-9.564357251E-2,4.888959974E-2,-9.929520607E0
4.399843700E-2,-1.239238828E-1,4.647624120E-2,-9.922318459E0
4.800000000E-2,-1.204379201E-1,5.655104294E-2,-9.920921326E0
5.199843700E-2,-1.271321177E-1,7.285077125E-2,-9.930976868E0
5.599843700E-2,-1.284441352E-1,6.025726721E-2,-9.913814545E0
5.999843700E-2,-1.272566020E-1,6.250781566E-2,-9.910002708E0
6.400000000E-2,-1.301296502E-1,5.950070173E-2,-9.898549080E0
6.799843700E-2,-1.213956028E-1,5.063257739E-2,-9.913431168E0
7.199843700E-2,-1.160613224E-1,5.437710881E-2,-9.921620369E0
7.600000000E-2,-1.151515245E-1,6.680780649E-2,-9.922002792E0
7.999843700E-2,-1.041573510E-1,5.996038765E-2,-9.930536270E0
8.399843700E-2,-1.248145252E-1,5.401319265E-2,-9.903164864E0
8.799843700E-2,-1.278790981E-1,5.593812838E-2,-9.908498764E0
9.200000000E-2,-1.197866946E-1,7.272627205E-2,-9.907101631E0
9.599843700E-2,-1.284824312E-1,5.742253363E-2,-9.909333229E0
9.999843700E-2,-1.102098897E-1,5.369715393E-2,-9.900923729E0
1.039984370E-1,-1.166933924E-1,4.888001829E-2,-9.905932426E0
1.080000000E-1,-1.133031994E-1,4.843948781E-2,-9.913096428E0
1.119984370E-1,-1.127381697E-1,6.155971438E-2,-9.905118942E0
1.159984370E-1,-1.102769300E-1,5.758533999E-2,-9.902935982E0
1.199984370E-1,-1.192120910E-1,4.993347079E-2,-9.884270668E0
1.240000000E-1,-1.160517409E-1,5.407065153E-2,-9.900885582E0
1.279984370E-1,-1.130925119E-1,7.359776646E-2,-9.915087700E0
1.319984370E-1,-1.283579469E-1,5.646485090E-2,-9.914093018E0
1.359984370E-1,-1.207539588E-1,5.757576227E-2,-9.897821426E0
1.400000000E-1,-1.177851483E-1,5.424303561E-2,-9.915548325E0
1.439984370E-1,-1.329548061E-1,5.299805105E-2,-9.897811890E0
1.479984370E-1,-1.213860214E-1,4.519294947E-2,-9.907426834E0
1.520000000E-1,-1.287984699E-1,5.604347214E-2,-9.892209053E0
1.560000000E-1,-1.150366068E-1,6.560112536E-2,-9.912397385E0
1.600000000E-1,-1.183597594E-1,5.805460364E-2,-9.909246445E0
1.640000000E-1,-1.147971824E-1,5.508579314E-2,-9.912118912E0
1.680000000E-1,-1.122114509E-1,4.468537867E-2,-9.909170151E0
1.720000000E-1,-1.144619957E-1,4.153461009E-2,-9.909907341E0
1.760000000E-1,-1.243069544E-1,4.120900109E-2,-9.909975052E0
1.800000000E-1,-1.225256622E-1,5.069961399E-2,-9.901871681E0
1.840000000E-1,-1.092617884E-1,5.451118574E-2,-9.906737328E0
1.880000000E-1,-1.254178584E-1,6.169379130E-2,-9.907695770E0
1.920000000E-1,-1.194515079E-1,4.385219887E-2,-9.904908180E0
1.960000000E-1,-1.204858124E-1,5.020162091E-2,-9.899190903E0
2.000000000E-1,-1.256668568E-1,5.911763012E-2,-9.911917686E0
2.040000000E-1,-1.321886629E-1,4.492479935E-2,-9.915433884E0
2.080000000E-1,-1.219031736E-1,6.349422783E-2,-9.906507492E0
2.120000000E-1,-1.321886629E-1,6.027641892E-2,-9.911698341E0
2.160000000E-1,-1.220659763E-1,5.414726585E-2,-9.893933296E0
2.200000000E-1,-1.167412698E-1,4.778826609E-2,-9.906737328E0
2.240000000E-1,-1.355597079E-1,6.879020482E-2,-9.903797150E0
2.280000000E-1,-1.126136705E-1,5.381207541E-2,-9.899248123E0
2.320000000E-1,-1.256668568E-1,4.678269848E-2,-9.905177116E0
2.360000000E-1,-1.159942821E-1,5.464525893E-2,-9.896087646E0
2.400000000E-1,-1.067909673E-1,6.619488448E-2,-9.895876884E0
2.440000000E-1,-1.168178841E-1,5.850471184E-2,-9.906593323E0
2.480000000E-1,-1.131403968E-1,6.609912217E-2,-9.908815384E0
2.520000000E-1,-1.172392666E-1,6.358999759E-2,-9.906028748E0
2.560000000E-1,-1.147205681E-1,6.802405417E-2,-9.907675743E0
2.600000000E-1,-1.247091740E-1,6.894343346E-2,-9.909907341E0
2.640000000E-1,-1.194515079E-1,6.058287993E-2,-9.913489342E0
2.680000000E-1,-1.183597594E-1,5.123591796E-2,-9.899133682E0
2.720000000E-1,-1.191450506E-1,4.657201096E-2,-9.911343575E0
2.760000000E-1,-1.202942729E-1,5.192544684E-2,-9.913766861E0
2.800000000E-1,-1.212711036E-1,6.158844382E-2,-9.900962830E0
2.840000000E-1,-1.194802374E-1,6.122452393E-2,-9.897859573E0
2.880000000E-1,-1.251975894E-1,5.556463078E-2,-9.910443306E0
2.920000000E-1,-1.119241416E-1,6.656838208E-2,-9.899162292E0
2.960000000E-1,-1.174595356E-1,6.994900107E-2,-9.896404266E0
3.000000000E-1,-1.118379533E-1,4.910986871E-2,-9.893617630E0
3.040000000E-1,-1.316810846E-1,5.991250277E-2,-9.906565666E0
3.080000000E-1,-1.209550723E-1,6.431782991E-2,-9.904611588E0
3.120000000E-1,-1.295933574E-1,6.396349519E-2,-9.901365280E0
3.160000000E-1,-1.230715439E-1,5.956773832E-2,-9.896528244E0
3.200000000E-1,-1.215775609E-1,5.287355185E-2,-9.906765938E0
3.240000000E-1,-1.200548485E-1,4.351700842E-2,-9.914992332E0
3.280000000E-1,-1.238759980E-1,5.392699689E-2,-9.913603783E0
3.320078120E-1,-1.290187389E-1,5.729803443E-2,-9.889259338E0
3.360000000E-1,-1.147205681E-1,5.094861239E-2,-9.893589020E0
3.399984370E-1,-1.156590953E-1,6.143521518E-2,-9.908767700E0
3.440000000E-1,-1.194706634E-1,6.442318112E-2,-9.907628059E0
3.479984370E-1,-1.032092422E-1,6.856035441E-2,-9.909687042E0
3.519984370E-1,-1.177276820E-1,5.794925615E-2,-9.896930695E0
3.559984370E-1,-1.351574659E-1,5.463568121E-2,-9.908547401E0
3.600000000E-1,-1.231673136E-1,5.276820436E-2,-9.897524834E0
3.640000000E-1,-1.151132211E-1,5.265328288E-2,-9.896001816E0
3.679984370E-1,-1.127573252E-1,6.384856999E-2,-9.892621040E0
3.719984370E-1,-1.236461550E-1,6.272808462E-2,-9.895503998E0
3.760000000E-1,-1.266915798E-1,6.177040562E-2,-9.900503159E0
3.799984370E-1,-1.100566611E-1,6.342719495E-2,-9.890686989E0
3.840000000E-1,-1.132074371E-1,6.028600037E-2,-9.910739899E0
3.879984370E-1,-1.166167781E-1,5.665638670E-2,-9.895302773E0
3.920000000E-1,-1.045691520E-1,4.435976967E-2,-9.904400826E0
3.959984370E-1,-1.081317291E-1,4.448426887E-2,-9.899592400E0
3.999984370E-1,-1.104684696E-1,4.751053825E-2,-9.898223877E0
4.040000000E-1,-1.120486408E-1,5.343858153E-2,-9.903720856E0
4.080000000E-1,-1.234258860E-1,5.626374111E-2,-9.908403397E0
4.119984370E-1,-1.227172017E-1,5.204036832E-2,-9.900281906E0
4.159984370E-1,-1.139927283E-1,4.727111757E-2,-9.901058197E0
4.200000000E-1,-1.107940748E-1,4.428315535E-2,-9.899535179E0
4.240000000E-1,-1.189631000E-1,4.255932942E-2,-9.907628059E0
4.279984370E-1,-1.153430641E-1,6.707596034E-2,-9.905846596E0
4.319984370E-1,-1.143662259E-1,6.261315942E-2,-9.899861336E0
4.360000000E-1,-1.209454983E-1,5.812164024E-2,-9.894794464E0
4.399984370E-1,-1.278408021E-1,5.972096696E-2,-9.905875206E0
4.440000000E-1,-1.132553145E-1,5.487510189E-2,-9.900799751E0
4.479984370E-1,-1.224011704E-1,6.163632870E-2,-9.911085129E0
4.520000000E-1,-1.267586201E-1,5.331408232E-2,-9.896404266E0
4.559984370E-1,-1.226022765E-1,5.076665059E-2,-9.898558617E0
4.599984370E-1,-1.238376945E-1,5.408022553E-2,-9.902887344E0
4.640000000E-1,-1.213668734E-1,6.429868191E-2,-9.895627975E0
4.680000000E-1,-1.253029406E-1,6.182786450E-2,-9.894594193E0
4.720000000E-1,-1.214243323E-1,4.982812330E-2,-9.880956650E0
4.759984370E-1,-1.029315218E-1,4.955039918E-2,-9.883427620E0
4.799984370E-1,-1.222192049E-1,5.571785942E-2,-9.893464088E0
4.840000000E-1,-1.114165708E-1,5.740338191E-2,-9.892582893E0
4.879984370E-1,-1.086297259E-1,5.700115487E-2,-9.885218620E0
4.919984370E-1,-1.080168039E-1,6.177997962E-2,-9.895044327E0
4.959984370E-1,-1.063217074E-1,6.942227483E-2,-9.904112816E0
5.000000000E-1,-1.297370046E-1,5.908889696E-2,-9.909313202E0
5.039984370E-1,-1.259062737E-1,5.673300102E-2,-9.909371376E0
5.080000000E-1,-1.173924953E-1,5.499960482E-2,-9.897352219E0
5.119984370E-1,-1.154771373E-1,5.889736116E-2,-9.892161369E0
5.160000000E-1,-1.191259027E-1,4.698381573E-2,-9.898405075E0
5.199984370E-1,-1.291049421E-1,5.586151406E-2,-9.896862984E0
5.239984370E-1,-1.179479510E-1,5.950070173E-2,-9.898271561E0
5.279984370E-1,-1.132170111E-1,4.942589998E-2,-9.894680023E0
5.320000000E-1,-1.238568425E-1,5.505706370E-2,-9.898098946E0
5.359984370E-1,-1.203421578E-1,5.739380419E-2,-9.910902977E0
5.399984370E-1,-1.141651124E-1,6.586927921E-2,-9.904955864E0
5.439984370E-1,-1.125274822E-1,6.544789672E-2,-9.898902893E0
5.480000000E-1,-1.197005063E-1,5.524859950E-2,-9.902447701E0
5.519984370E-1,-1.101620123E-1,6.058287993E-2,-9.908279419E0
5.559984370E-1,-1.192791313E-1,3.797203675E-2,-9.904141426E0
5.599984370E-1,-1.097406298E-1,5.705861747E-2,-9.909869194E0
5.640000000E-1,-1.093862802E-1,6.843586266E-2,-9.906603813E0
5.679984370E-1,-1.224969327E-1,6.744945049E-2,-9.902072906E0
5.719984370E-1,-1.217690930E-1,5.746084079E-2,-9.897534370E0
5.760000000E-1,-1.222862452E-1,5.640739202E-2,-9.892621040E0
5.799984370E-1,-1.183693334E-1,5.798756331E-2,-9.890466690E0
5.840000000E-1,-1.115889475E-1,7.014053315E-2,-9.881923676E0
5.879984370E-1,-1.166838184E-1,6.530424207E-2,-9.892745972E0
5.920000000E-1,-1.115506440E-1,4.929182306E-2,-9.899478912E0
5.960000000E-1,-1.152760237E-1,5.508579314E-2,-9.878447533E0
6.000000000E-1,-1.226884723E-1,5.929958820E-2,-9.887209892E0
6.039984370E-1,-1.161858216E-1,5.032612011E-2,-9.893990517E0
6.080000000E-1,-1.082658023E-1,5.265328288E-2,-9.894163132E0
6.120000000E-1,-1.085148007E-1,6.203855574E-2,-9.892659187E0
6.160000000E-1,-1.102577746E-1,5.868667364E-2,-9.899363518E0
6.200000000E-1,-1.182448342E-1,6.734410673E-2,-9.905932426E0
6.240000000E-1,-1.173637658E-1,5.416642129E-2,-9.900005341E0
6.280000000E-1,-1.221809015E-1,5.940493569E-2,-9.900177956E0
6.320000000E-1,-1.159847081E-1,4.720408097E-2,-9.871006012E0
6.360000000E-1,-1.233109683E-1,5.853344500E-2,-9.894450188E0
6.400000000E-1,-1.098747030E-1,6.633853912E-2,-9.894450188E0
6.440000000E-1,-1.276396811E-1,4.653370380E-2,-9.891184807E0
6.480000000E-1,-1.162720099E-1,5.186798424E-2,-9.883714676E0
6.520000000E-1,-1.221234426E-1,6.200982258E-2,-9.899468422E0
6.560000000E-1,-1.121156737E-1,5.912720412E-2,-9.896661758E0
6.600000000E-1,-1.185225621E-1,5.909847468E-2,-9.903375626E0
6.640000000E-1,-1.199303493E-1,5.128380284E-2,-9.902197838E0
6.680000000E-1,-1.190780178E-1,5.557421222E-2,-9.903308868E0
6.720000000E-1,-1.088691428E-1,4.878425226E-2,-9.897697449E0
6.760000000E-1,-1.289804429E-1,5.404191837E-2,-9.905023575E0
6.800000000E-1,-1.359331906E-1,5.701073259E-2,-9.909313202E0
6.840000000E-1,-1.233109683E-1,5.596685782E-2,-9.903806686E0
6.880000000E-1,-1.104588956E-1,5.113057420E-2,-9.899918556E0
6.920000000E-1,-1.226788908E-1,4.499183595E-2,-9.897486687E0
6.960000000E-1,-1.059482098E-1,5.519114062E-2,-9.886041641E0
7.000000000E-1,-1.231481582E-1,6.095637381E-2,-9.887689590E0
7.040000000E-1,-1.173446104E-1,4.931097850E-2,-9.890255928E0
7.080000000E-1,-1.101620123E-1,6.807194650E-2,-9.882785797E0
7.120000000E-1,-1.120294854E-1,6.577350944E-2,-9.897342682E0
7.160000000E-1,-1.063695922E-1,6.189490110E-2,-9.900876045E0
7.200000000E-1,-1.175457239E-1,7.142382860E-2,-9.908241272E0
7.239984370E-1,-1.140023097E-1,6.723876297E-2,-9.885860443E0
7.279984370E-1,-1.106504276E-1,4.726154357E-2,-9.887372971E0
7.319984370E-1,-1.213285699E-1,6.322608143E-2,-9.889843941E0
7.359984370E-1,-1.200452745E-1,5.656062067E-2,-9.897418976E0
7.399984370E-1,-1.234067306E-1,5.562209338E-2,-9.895963669E0
7.439984370E-1,-1.135521978E-1,6.331226975E-2,-9.882287979E0
7.480000000E-1,-1.220276728E-1,5.763322487E-2,-9.885141373E0
7.519984370E-1,-1.196143180E-1,5.085284263E-2,-9.891960144E0
7.559984370E-1,-1.125466302E-1,6.007530913E-2,-9.892678261E0
7.599984370E-1,-1.232056171E-1,6.835924834E-2,-9.905577660E0
7.640000000E-1,-1.209359095E-1,5.873455480E-2,-9.908844948E0
7.680000000E-1,-1.203804612E-1,6.211517006E-2,-9.903126717E0
7.719984370E-1,-1.283579469E-1,6.293877214E-2,-9.892391205E0
7.759984370E-1,-1.323227435E-1,5.611051247E-2,-9.891989708E0
7.800000000E-1,-1.370345354E-1,6.022853777E-2,-9.893118858E0
7.840000000E-1,-1.152855977E-1,5.486552417E-2,-9.893301010E0
7.879984370E-1,-1.143087670E-1,6.213432178E-2,-9.904965401E0
7.919984370E-1,-1.148546413E-1,5.374504253E-2,-9.888723373E0
7.960000000E-1,-1.204858124E-1,5.240428448E-2,-9.892295837E0
7.999984370E-1,-1.235886887E-1,5.066130683E-2,-9.897103310E0
8.039984370E-1,-1.203517318E-1,5.010585487E-2,-9.901565552E0
8.079984370E-1,-1.239334568E-1,5.259582028E-2,-9.886472702E0
8.120000000E-1,-1.255423576E-1,5.189671740E-2,-9.881444931E0
8.159984370E-1,-1.244122982E-1,4.340208694E-2,-9.888885498E0
8.199984370E-1,-1.128339395E-1,5.437710881E-2,-9.885581970E0
8.240000000E-1,-1.330026835E-1,6.001785025E-2,-9.889154434E0
8.280000000E-1,-1.214626357E-1,6.487329304E-2,-9.892812729E0
8.319984370E-1,-1.256381273E-1,7.125144452E-2,-9.889116287E0
8.360000000E-1,-1.118283793E-1,5.590939894E-2,-9.896910667E0
8.399984370E-1,-1.173350364E-1,4.757757485E-2,-9.899842262E0
8.440000000E-1,-1.194706634E-1,6.207686290E-2,-9.890628815E0
8.479984370E-1,-1.163773611E-1,7.131848484E-2,-9.884662628E0
8.520000000E-1,-1.162145510E-1,7.057148963E-2,-9.883533478E0
8.559984370E-1,-1.307042539E-1,5.207867548E-2,-9.888685226E0
8.600000000E-1,-1.117038727E-1,5.707776919E-2,-9.886855125E0
8.639984370E-1,-1.284345537E-1,5.343858153E-2,-9.880851746E0
8.679984370E-1,-1.309915632E-1,6.018065289E-2,-9.886635780E0
8.719984370E-1,-1.082849577E-1,7.351156324E-2,-9.893751144E0
8.760000000E-1,-1.138299257E-1,6.864655018E-2,-9.894594193E0
8.799984370E-1,-1.193557456E-1,5.278735608E-2,-9.895274162E0
8.839984370E-1,-1.113016531E-1,6.263231486E-2,-9.905434608E0
8.879984370E-1,-1.183310226E-1,7.209420204E-2,-9.902868271E0
8.920000000E-1,-1.264425814E-1,6.800490618E-2,-9.895398140E0
8.959984370E-1,-1.119145676E-1,5.709692463E-2,-9.884930611E0
8.999984370E-1,-1.213381439E-1,5.440583825E-2,-9.882814407E0
9.039984370E-1,-1.186757907E-1,5.101565272E-2,-9.890122414E0
9.079984370E-1,-1.170764640E-1,4.442680627E-2,-9.898395538E0
9.119984370E-1,-1.081413031E-1,3.918829188E-2,-9.892879486E0
9.159984370E-1,-1.141076535E-1,5.568913370E-2,-9.886482239E0
9.200000000E-1,-1.230332330E-1,5.011542886E-2,-9.898185730E0
9.239984370E-1,-1.123263687E-1,4.969405010E-2,-9.891031265E0
9.279984370E-1,-1.223724335E-1,6.583096832E-2,-9.889106750E0
9.319984370E-1,-1.185704395E-1,6.322608143E-2,-9.899181366E0
9.360000000E-1,-1.177276820E-1,6.279512495E-2,-9.898827553E0
9.400000000E-1,-1.266724169E-1,4.730942473E-2,-9.894631386E0
9.439984370E-1,-1.306468099E-1,5.219359696E-2,-9.877423286E0
9.479984370E-1,-1.124891713E-1,6.142564118E-2,-9.900100708E0
9.520000000E-1,-1.279461384E-1,5.429091677E-2,-9.897160530E0
9.559984370E-1,-1.134372801E-1,4.979939759E-2,-9.897706032E0
9.599984370E-1,-1.162528619E-1,4.826710373E-2,-9.887325287E0
9.639984370E-1,-1.197675467E-1,6.541916728E-2,-9.883705139E0
9.680000000E-1,-1.268160790E-1,5.936662853E-2,-9.890954971E0
9.719984370E-1,-1.153717861E-1,5.469314009E-2,-9.890772820E0
9.759984370E-1,-1.149312556E-1,5.164771900E-2,-9.892611504E0
9.799984370E-1,-1.193174347E-1,5.612966418E-2,-9.881933212E0
9.840000000E-1,-1.286644042E-1,5.154237524E-2,-9.888225555E0
9.879984370E-1,-1.209454983E-1,5.704903975E-2,-9.894536018E0
9.919984370E-1,-1.170094237E-1,5.944324285E-2,-9.887755394E0
9.959984370E-1,-1.263180822E-1,6.580223888E-2,-9.887775421E0
1.000000000E0,-1.191546321E-1,5.475060269E-2,-9.888541222E0
1.003998437E0,-1.234737709E-1,5.290227756E-2,-9.886626244E0
1.007998437E0,-1.204379201E-1,5.231809616E-2,-9.897496223E0
1.011998437E0,-1.120677963E-1,5.255751312E-2,-9.901220322E0
1.016000000E0,-1.126328260E-1,5.251920596E-2,-9.889393806E0
1.019998437E0,-1.187332571E-1,4.660074413E-2,-9.898644447E0
1.023998437E0,-1.187715605E-1,5.299805105E-2,-9.885687828E0
1.027998437E0,-1.106121242E-1,6.130113825E-2,-9.891921997E0
1.031998437E0,-1.162528619E-1,4.301901534E-2,-9.894804955E0
1.035998437E0,-1.216541752E-1,5.868667364E-2,-9.893224716E0
1.039998437E0,-1.116464138E-1,5.343858153E-2,-9.888301849E0
1.043998437E0,-1.262318939E-1,5.911763012E-2,-9.895954132E0
1.048000000E0,-1.225256622E-1,5.510494485E-2,-9.888799667E0
1.051998437E0,-1.254178584E-1,5.122634023E-2,-9.884787560E0
1.055998437E0,-1.219702139E-1,5.735549703E-2,-9.873256683E0
1.059998437E0,-1.243835688E-1,6.725791097E-2,-9.879817009E0
1.064000000E0,-1.237514988E-1,5.770983920E-2,-9.892611504E0
1.067998437E0,-1.208401471E-1,5.755661055E-2,-9.880563736E0
1.071998437E0,-1.041765064E-1,6.073610857E-2,-9.881712914E0
1.076000000E0,-1.121731400E-1,6.712383777E-2,-9.895235062E0
1.080000000E0,-1.154867113E-1,5.763322487E-2,-9.906526566E0
1.083998437E0,-1.046936512E-1,4.713704437E-2,-9.896959305E0
1.087998437E0,-1.118762568E-1,6.454767287E-2,-9.906631470E0
1.092000000E0,-1.084764972E-1,5.725015327E-2,-9.899698257E0
1.095998437E0,-1.145960689E-1,5.822698772E-2,-9.891701698E0
1.099998437E0,-1.145769209E-1,5.754703283E-2,-9.901871681E0
1.103998437E0,-1.156590953E-1,5.813121796E-2,-9.890850067E0
1.108000000E0,-1.169998497E-1,6.684611738E-2,-9.893080711E0
1.111998437E0,-1.104780436E-1,6.521805376E-2,-9.875689507E0
1.115998437E0,-1.174786910E-1,7.927680761E-2,-9.902782440E0
1.119998437E0,-1.092043296E-1,7.311891764E-2,-9.885141373E0
1.124000000E0,-1.081029996E-1,6.417418271E-2,-9.888723373E0
1.128000000E0,-1.229087338E-1,5.673300102E-2,-9.887478828E0
1.131998437E0,-1.184938252E-1,5.463568121E-2,-9.882307053E0
1.135998437E0,-1.192982793E-1,5.699157715E-2,-9.884998322E0
1.140000000E0,-1.148354858E-1,6.209601462E-2,-9.899985313E0
1.144000000E0,-1.284441352E-1,5.426218733E-2,-9.888885498E0
1.147998437E0,-1.283100545E-1,6.435614079E-2,-9.887506485E0
1.151998437E0,-1.217978299E-1,6.850289553E-2,-9.894583702E0
1.156000000E0,-1.263180822E-1,6.154056266E-2,-9.892085075E0
1.160000000E0,-1.213956028E-1,5.065172911E-2,-9.893129349E0
1.164000000E0,-1.138873920E-1,6.070737913E-2,-9.890332222E0
1.168000000E0,-1.190397143E-1,6.067864597E-2,-9.881080627E0
1.172000000E0,-1.082753763E-1,4.524083808E-2,-9.884366035E0
1.176000000E0,-1.091277152E-1,5.426218733E-2,-9.889327049E0
1.180000000E0,-1.195185483E-1,4.552813992E-2,-9.891941071E0
1.184000000E0,-1.255615205E-1,4.767334461E-2,-9.892985344E0
1.188000000E0,-1.228608564E-1,5.282566324E-2,-9.877393723E0
1.192000000E0,-1.173254624E-1,6.448063999E-2,-9.887870789E0
1.196000000E0,-1.070591211E-1,6.241204962E-2,-9.889853477E0
1.200000000E0,-1.097214743E-1,5.353435129E-2,-9.891443253E0
1.204000000E0,-1.133319288E-1,6.347507238E-2,-9.891222954E0
1.207998437E0,-1.119241416E-1,5.899313092E-2,-9.892439842E0
1.211998437E0,-1.026059091E-1,6.348465383E-2,-9.887315750E0
1.215998437E0,-1.211370304E-1,4.204218462E-2,-9.892026901E0
1.220000000E0,-1.179671064E-1,4.317224398E-2,-9.896404266E0
1.223998437E0,-1.221234426E-1,5.467398837E-2,-9.883418083E0
1.227998437E0,-1.180341393E-1,6.196194142E-2,-9.883139610E0
1.231998437E0,-1.197292432E-1,6.838797778E-2,-9.896940231E0
1.236000000E0,-1.137533113E-1,4.819048941E-2,-9.900032997E0
1.239998437E0,-1.241920292E-1,5.376419425E-2,-9.893990517E0
1.243998437E0,-1.286835521E-1,5.498044938E-2,-9.895906448E0
1.248000000E0,-1.267586201E-1,7.105033100E-2,-9.892621040E0
1.252000000E0,-1.113016531E-1,4.613147676E-2,-9.902150154E0
1.255998437E0,-1.112729162E-1,5.413768813E-2,-9.895876884E0
1.259998437E0,-1.241537258E-1,6.238332018E-2,-9.897237778E0
1.264000000E0,-1.115027592E-1,4.560475424E-2,-9.888195992E0
1.267998437E0,-1.169136614E-1,5.128380284E-2,-9.899870872E0
1.271998437E0,-1.195568517E-1,5.002924055E-2,-9.888444901E0
1.275998437E0,-1.137245819E-1,6.115749106E-2,-9.898013115E0
1.280000000E0,-1.285782009E-1,5.359181389E-2,-9.891203880E0
1.284000000E0,-1.280898005E-1,4.756800085E-2,-9.889575958E0
1.287998437E0,-1.278216392E-1,5.511452630E-2,-9.889661789E0
1.291998437E0,-1.282238662E-1,4.600698128E-2,-9.892601967E0
1.296000000E0,-1.132074371E-1,4.363192990E-2,-9.898999214E0
1.299998437E0,-1.128243655E-1,5.123591796E-2,-9.894278526E0
1.303998437E0,-1.200931519E-1,4.862144962E-2,-9.892228127E0
1.307998437E0,-1.184267923E-1,5.869624764E-2,-9.905491829E0
1.312000000E0,-1.102386266E-1,4.751053825E-2,-9.892688751E0
1.315998437E0,-1.070687026E-1,4.587290436E-2,-9.891596794E0
1.319998437E0,-1.243452579E-1,6.831136346E-2,-9.898377419E0
1.323998437E0,-1.176319197E-1,5.646485090E-2,-9.895494461E0
1.328000000E0,-1.185991764E-1,6.290046871E-2,-9.884749413E0
1.331998437E0,-1.180437207E-1,5.732676759E-2,-9.884424210E0
1.335998437E0,-1.088499799E-1,5.637866259E-2,-9.878227234E0
1.339998437E0,-1.244314462E-1,7.460332662E-2,-9.880276680E0
1.344000000E0,-1.183214486E-1,7.067683339E-2,-9.888962746E0
1.347998437E0,-1.166167781E-1,6.097552925E-2,-9.883436203E0
1.352001562E0,-1.163294762E-1,5.762364715E-2,-9.894843102E0
1.355998437E0,-1.177085340E-1,6.413587183E-2,-9.886970520E0
1.360000000E0,-1.168083102E-1,5.211698264E-2,-9.888331413E0
1.364000000E0,-1.067622453E-1,5.598601326E-2,-9.891156197E0
1.367998437E0,-1.176989600E-1,6.708553433E-2,-9.884499550E0
1.371998437E0,-1.326579303E-1,5.492299050E-2,-9.880305290E0
1.375998437E0,-1.268256605E-1,5.936662853E-2,-9.885457993E0
1.379998437E0,-1.117996424E-1,6.042007357E-2,-9.891845703E0
1.384000000E0,-1.156590953E-1,5.639781430E-2,-9.896537781E0
1.387998437E0,-1.199495122E-1,5.394615233E-2,-9.881770134E0
1.392000000E0,-1.113495305E-1,5.537309498E-2,-9.880257607E0
1.395998437E0,-1.205432639E-1,6.359957159E-2,-9.896987915E0
1.399998437E0,-1.256189793E-1,5.483679473E-2,-9.893454552E0
1.403998437E0,-1.270459145E-1,6.087018549E-2,-9.886654854E0
1.408000000E0,-1.167029664E-1,6.612785161E-2,-9.890427589E0
1.411998437E0,-1.186183318E-1,5.611051247E-2,-9.890676498E0
1.415998437E0,-1.029219404E-1,5.830360204E-2,-9.890398979E0
1.420000000E0,-1.096927449E-1,7.072471827E-2,-9.898530006E0
1.424000000E0,-1.183693334E-1,6.600335240E-2,-9.904228210E0
1.427998437E0,-1.014854237E-1,6.424121559E-2,-9.890830040E0
1.431998437E0,-1.063217074E-1,6.119579822E-2,-9.880066872E0
1.436000000E0,-1.193174347E-1,4.530787095E-2,-9.877078056E0
1.440000000E0,-1.190492883E-1,5.732676759E-2,-9.890274048E0
1.443998437E0,-1.181586459E-1,5.736507475E-2,-9.886558533E0
1.447998437E0,-1.033050120E-1,6.616616249E-2,-9.888397217E0
1.452000000E0,-1.150844842E-1,7.025545835E-2,-9.888282776E0
1.456000000E0,-1.226788908E-1,6.766013801E-2,-9.890495300E0
1.459998437E0,-1.181682199E-1,6.809109449E-2,-9.897084236E0
1.463998437E0,-1.185800284E-1,6.217262894E-2,-9.884768486E0
1.468000000E0,-1.081221476E-1,5.781518295E-2,-9.888263702E0
1.471998437E0,-1.168178841E-1,5.368757993E-2,-9.889891624E0
1.475998437E0,-1.172009557E-1,5.160941184E-2,-9.890092850E0
1.479998437E0,-1.238951460E-1,6.408798695E-2,-9.893923759E0
1.484000000E0,-1.102769300E-1,5.432922393E-2,-9.889661789E0
1.487998437E0,-1.185129881E-1,6.698976457E-2,-9.888052940E0
1.491998437E0,-1.166838184E-1,6.512228400E-2,-9.892477989E0
1.495998437E0,-1.164156646E-1,5.633077770E-2,-9.874779701E0
1.500000000E0,-1.204379201E-1,5.600516498E-2,-9.881568909E0
1.503998437E0,-1.121156737E-1,6.092764810E-2,-9.900032997E0
1.507998437E0,-1.275247633E-1,3.969586641E-2,-9.895245552E0
1.511998437E0,-1.181394905E-1,4.411077127E-2,-9.903797150E0
1.516000000E0,-1.229566187E-1,5.468356609E-2,-9.899468422E0
1.519998437E0,-1.205528378E-1,5.541140214E-2,-9.876675606E0
1.523998437E0,-1.106408462E-1,4.774995893E-2,-9.880592346E0
1.527998437E0,-1.119145676E-1,5.193502456E-2,-9.883915901E0
1.532000000E0,-1.189247891E-1,5.259582028E-2,-9.896499634E0
1.535998437E0,-1.322939992E-1,6.055415049E-2,-9.899889946E0
1.539998437E0,-1.398980021E-1,4.930140451E-2,-9.892908096E0
1.543998437E0,-1.176414937E-1,5.988377333E-2,-9.880056381E0
1.548000000E0,-1.164827049E-1,5.224148184E-2,-9.897055626E0
1.551998437E0,-1.220851392E-1,5.563167110E-2,-9.891777992E0
1.555998437E0,-1.154867113E-1,6.116706505E-2,-9.885955811E0
1.559998437E0,-1.307425648E-1,5.463568121E-2,-9.885400772E0
1.563998437E0,-1.124317124E-1,6.225882098E-2,-9.892352104E0
1.567998437E0,-1.174212247E-1,5.525817350E-2,-9.888607979E0
1.571998437E0,-1.191259027E-1,5.044104159E-2,-9.878170013E0
1.575998437E0,-1.193270087E-1,6.473921239E-2,-9.896059990E0
1.579998437E0,-1.181682199E-1,5.121676251E-2,-9.891788483E0
1.583998437E0,-1.154100969E-1,6.422206759E-2,-9.898789406E0
1.587998437E0,-1.198441610E-1,6.772717834E-2,-9.887890816E0
1.592000000E0,-1.249677539E-1,4.838202521E-2,-9.899994850E0
1.595998437E0,-1.265862286E-1,4.963658750E-2,-9.896374702E0
1.599998437E0,-1.278982610E-1,6.110002846E-2,-9.902379990E0
1.603998437E0,-1.113399565E-1,7.108864188E-2,-9.903739929E0
1.608000000E0,-1.144619957E-1,5.206909776E-2,-9.888733864E0
1.612000000E0,-1.132553145E-1,5.463568121E-2,-9.895944595E0
1.615998437E0,-1.224586293E-1,6.277596951E-2,-9.894344330E0
1.619998437E0,-1.246612966E-1,6.701849401E-2,-9.886615753E0
1.624000000E0,-1.190397143E-1,5.527732894E-2,-9.889355659E0
1.627998437E0,-1.254753172E-1,5.924212560E-2,-9.887382507E0
1.631998437E0,-1.372835189E-1,7.739975303E-2,-9.881349564E0
1.635998437E0,-1.232056171E-1,7.531201094E-2,-9.880496979E0
1.640000000E0,-1.185512915E-1,5.968265980E-2,-9.877039909E0
1.643998437E0,-1.221617535E-1,5.301720276E-2,-9.898902893E0
1.647998437E0,-1.081413031E-1,5.527732894E-2,-9.884250641E0
1.651998437E0,-1.183884889E-1,5.159026012E-2,-9.901182175E0
1.656000000E0,-1.153239086E-1,5.492299050E-2,-9.897649765E0
1.659998437E0,-1.152664497E-1,5.641696975E-2,-9.879913330E0
1.663998437E0,-1.185129881E-1,5.957731605E-2,-9.886109352E0
1.667998437E0,-1.238664165E-1,5.526775494E-2,-9.897199631E0
1.672000000E0,-1.147971824E-1,5.053680763E-2,-9.891386032E0
1.676000000E0,-1.359044611E-1,5.825571343E-2,-9.891960144E0
1.679998437E0,-1.362204999E-1,6.119579822E-2,-9.891893387E0
1.683998437E0,-1.139927283E-1,5.235640332E-2,-9.892037392E0
1.688000000E0,-1.159847081E-1,5.602432042E-2,-9.882996559E0
1.691998437E0,-1.231864616E-1,5.919424444E-2,-9.888618469E0
1.696000000E0,-1.099704728E-1,4.870763794E-2,-9.880688667E0
1.699998437E0,-1.132074371E-1,3.976290300E-2,-9.888723373E0
1.704000000E0,-1.179000735E-1,4.154418781E-2,-9.876436234E0
1.707998437E0,-1.177947223E-1,4.670608416E-2,-9.893521309E0
1.711998437E0,-1.109281555E-1,5.572744086E-2,-9.891088486E0
1.716000000E0,-1.163390502E-1,5.026865751E-2,-9.906143188E0
1.720000000E0,-1.320258677E-1,6.795702130E-2,-9.888263702E0
1.723998437E0,-1.236844659E-1,5.904101580E-2,-9.897390366E0
1.727998437E0,-1.134181246E-1,7.064810395E-2,-9.891013145E0
1.731998437E0,-1.201697662E-1,4.731900245E-2,-9.896212578E0
1.735998437E0,-1.234258860E-1,6.123410538E-2,-9.879433632E0
1.739998437E0,-1.018206105E-1,5.408022553E-2,-9.894794464E0
1.743998437E0,-1.157452837E-1,4.848737270E-2,-9.886147499E0
1.748000000E0,-1.310202926E-1,4.733815789E-2,-9.888216019E0
1.751998437E0,-1.249294430E-1,5.385038257E-2,-9.893013954E0
1.755998437E0,-1.185417175E-1,6.752606481E-2,-9.877939224E0
1.759998437E0,-1.185800284E-1,6.673119217E-2,-9.891357422E0
1.764000000E0,-1.169902757E-1,6.406883895E-2,-9.891021729E0
1.768000000E0,-9.928275645E-2,6.728664041E-2,-9.894248962E0
1.771998437E0,-1.187524050E-1,5.240428448E-2,-9.889355659E0
1.775998437E0,-1.184842512E-1,4.342124239E-2,-9.886941910E0
1.780000000E0,-1.300530434E-1,5.821740627E-2,-9.888819695E0
1.783998437E0,-1.172871515E-1,5.899313092E-2,-9.887536049E0
1.787998437E0,-1.318534762E-1,6.405925751E-2,-9.880104065E0
1.791998437E0,-1.244889125E-1,7.279331237E-2,-9.887478828E0
1.796000000E0,-1.179000735E-1,6.287173927E-2,-9.916582108E0
1.799998437E0,-1.169711128E-1,5.905058980E-2,-9.892343521E0
1.803998437E0,-1.128052026E-1,4.487691447E-2,-9.890954971E0
1.807998437E0,-1.329931170E-1,5.241386592E-2,-9.899343491E0
1.812000000E0,-1.185034066E-1,5.673300102E-2,-9.882354736E0
1.815998437E0,-1.227842420E-1,4.819048941E-2,-9.897026062E0
1.819998437E0,-1.237993836E-1,4.684016109E-2,-9.891826630E0
1.823998437E0,-1.257434785E-1,5.682877079E-2,-9.899430275E0
1.828000000E0,-1.192791313E-1,5.963477865E-2,-9.884816170E0
1.831998437E0,-1.146918386E-1,5.001965910E-2,-9.876033783E0
1.835998437E0,-1.102003157E-1,6.422206759E-2,-9.886789322E0
1.839998437E0,-1.244314462E-1,5.839936808E-2,-9.892793655E0
1.844000000E0,-1.225256622E-1,5.676173419E-2,-9.890850067E0
1.847998437E0,-1.045595780E-1,5.348646641E-2,-9.891501427E0
1.851998437E0,-1.115506440E-1,5.338112265E-2,-9.901747704E0
1.855998437E0,-1.263180822E-1,5.602432042E-2,-9.887353897E0
1.860000000E0,-1.319875419E-1,5.023035035E-2,-9.879241943E0
1.863998437E0,-1.223915964E-1,5.127422512E-2,-9.878122330E0
1.867998437E0,-1.155729070E-1,6.135860085E-2,-9.886827469E0
1.872001562E0,-1.310969144E-1,4.540364072E-2,-9.903682709E0
1.876000000E0,-1.319205165E-1,4.563348368E-2,-9.898750305E0
1.879998437E0,-1.242207661E-1,5.135083944E-2,-9.886328697E0
1.883998437E0,-1.247379109E-1,5.227021128E-2,-9.886491776E0
1.887998437E0,-1.143757999E-1,5.598601326E-2,-9.874712944E0
1.891998437E0,-1.222575158E-1,5.314170197E-2,-9.895743370E0
1.895998437E0,-1.368621588E-1,6.076483801E-2,-9.888847351E0
1.899998437E0,-1.313746274E-1,6.652049720E-2,-9.885792732E0
1.903998437E0,-1.246900260E-1,5.592855066E-2,-9.887325287E0
1.908000000E0,-1.063791737E-1,5.779602751E-2,-9.894230843E0
1.911998437E0,-1.146343797E-1,6.741113961E-2,-9.905645370E0
1.916000000E0,-1.283100545E-1,4.755842313E-2,-9.888243675E0
1.920000000E0,-1.222000569E-1,5.311297253E-2,-9.877030373E0
1.924000000E0,-1.216924787E-1,5.209782720E-2,-9.891606331E0
1.927998437E0,-1.195951626E-1,4.639005288E-2,-9.891845703E0
1.931998437E0,-1.225256622E-1,6.608954817E-2,-9.875363350E0
1.936000000E0,-1.206581891E-1,5.115929991E-2,-9.881885529E0
1.940000000E0,-1.132936254E-1,5.656062067E-2,-9.883522987E0
1.943998437E0,-1.249294430E-1,5.748957023E-2,-9.895418167E0
1.947998437E0,-1.220468283E-1,5.005796999E-2,-9.896049500E0
1.952000000E0,-1.226597428E-1,5.664681271E-2,-9.890371323E0
1.955998437E0,-1.117230281E-1,5.893566832E-2,-9.884241104E0
1.959998437E0,-1.158027500E-1,5.594770610E-2,-9.894124985E0
1.963998437E0,-1.137437373E-1,5.398445949E-2,-9.889144897E0
1.968000000E0,-1.091947481E-1,5.994123593E-2,-9.887209892E0
1.971998437E0,-1.252359003E-1,6.282385439E-2,-9.889116287E0
1.975998437E0,-1.117900610E-1,5.167644843E-2,-9.888742447E0
1.979998437E0,-1.290283203E-1,5.689580739E-2,-9.873304367E0
1.984000000E0,-1.331750751E-1,5.744168907E-2,-9.891222954E0
1.987998437E0,-1.052586809E-1,5.745126307E-2,-9.887602806E0
1.991998437E0,-1.024430990E-1,4.722323641E-2,-9.892774582E0
1.995998437E0,-1.303882301E-1,5.809291080E-2,-9.904535294E0
2.000000000E0,-1.247283295E-1,6.042007357E-2,-9.896317482E0
2.003998437E0,-1.199016199E-1,5.714480579E-2,-9.896011353E0
2.007998437E0,-1.140597686E-1,5.920381844E-2,-9.885697365E0
2.011998437E0,-1.164827049E-1,4.986643046E-2,-9.888588905E0
2.016000000E0,-1.063600183E-1,4.903325066E-2,-9.881071091E0
2.020000000E0,-1.087829545E-1,5.374504253E-2,-9.881032944E0
2.023998437E0,-9.949344397E-2,6.518932432E-2,-9.889451027E0
2.027998437E0,-1.191067398E-1,4.657201096E-2,-9.897677422E0
2.032000000E0,-1.279174089E-1,5.055596307E-2,-9.895838737E0
2.035998437E0,-1.214817986E-1,5.001008511E-2,-9.874358177E0
2.039998437E0,-1.259733140E-1,5.630204827E-2,-9.885687828E0
2.043998437E0,-1.233301163E-1,5.427176133E-2,-9.882163048E0
2.048000000E0,-1.117613390E-1,7.012137771E-2,-9.884700775E0
2.051998437E0,-1.258296669E-1,6.260358542E-2,-9.895187378E0
2.055998437E0,-1.193940490E-1,5.212656036E-2,-9.872222900E0
2.059998437E0,-1.140693426E-1,4.852567986E-2,-9.886952400E0
2.064000000E0,-1.040807366E-1,5.414726585E-2,-9.883647919E0
2.067998437E0,-1.120007560E-1,5.103480443E-2,-9.865136147E0
2.071998437E0,-1.198058575E-1,4.800853506E-2,-9.885448456E0
2.075998437E0,-1.229566187E-1,4.029920325E-2,-9.895848274E0
2.080000000E0,-1.216350272E-1,4.792233929E-2,-9.898156166E0
2.083998437E0,-1.190684363E-1,5.407065153E-2,-9.889738083E0
2.087998437E0,-1.229757741E-1,6.651092321E-2,-9.893416405E0
2.092000000E0,-1.159655526E-1,6.110002846E-2,-9.876379013E0
2.096000000E0,-1.209071875E-1,5.852386355E-2,-9.886502266E0
2.099998437E0,-1.208880320E-1,5.909847468E-2,-9.889509201E0
2.103998437E0,-1.243069544E-1,5.961562321E-2,-9.888829231E0
2.108000000E0,-1.255615205E-1,6.204812974E-2,-9.885993958E0
2.112000000E0,-1.136958450E-1,4.754884541E-2,-9.885428429E0
2.115998437E0,-1.093192548E-1,4.638047516E-2,-9.884183884E0
2.120000000E0,-1.215488315E-1,6.304412335E-2,-9.883782387E0
2.124000000E0,-1.165784672E-1,5.426218733E-2,-9.887775421E0
2.128000000E0,-1.241441518E-1,6.123410538E-2,-9.890514374E0
2.131998437E0,-1.247857884E-1,5.221274868E-2,-9.888607979E0
2.135998437E0,-1.205336899E-1,5.956773832E-2,-9.886578560E0
2.140000000E0,-1.232630759E-1,6.893385202E-2,-9.877078056E0
2.143998437E0,-1.197866946E-1,6.714299321E-2,-9.891212463E0
2.147998437E0,-1.262031645E-1,6.007530913E-2,-9.909572601E0
2.151998437E0,-1.171243414E-1,5.020162091E-2,-9.894995689E0
2.156000000E0,-1.212998331E-1,4.159207270E-2,-9.891999245E0
2.159998437E0,-1.217690930E-1,6.060203165E-2,-9.884202957E0
2.163998437E0,-1.177755743E-1,5.769068375E-2,-9.881914139E0
2.167998437E0,-1.192791313E-1,4.603571072E-2,-9.884662628E0
2.172000000E0,-1.186757907E-1,5.648400635E-2,-9.894230843E0
2.175998437E0,-1.137533113E-1,6.320692599E-2,-9.893195152E0
2.180000000E0,-1.140501946E-1,5.308423936E-2,-9.894163132E0
2.183998437E0,-1.151515245E-1,5.228936300E-2,-9.887056351E0
2.188000000E0,-1.049330756E-1,5.527732894E-2,-9.899076462E0
2.191998437E0,-1.217882559E-1,6.281428039E-2,-9.893099785E0
2.196000000E0,-1.132265851E-1,6.606081128E-2,-9.891501427E0
2.199998437E0,-1.188481748E-1,6.088934094E-2,-9.882220268E0
2.204000000E0,-1.130829304E-1,6.657795608E-2,-9.876044273E0
2.207998437E0,-1.202751175E-1,6.654923409E-2,-9.891625404E0
2.211998437E0,-1.204570755E-1,6.032430753E-2,-9.890419006E0
2.215998437E0,-1.246229857E-1,6.481582671E-2,-9.899046898E0
2.220000000E0,-1.235791147E-1,6.919243187E-2,-9.889939308E0
2.223998437E0,-1.110813841E-1,5.951027572E-2,-9.882134438E0
2.227998437E0,-1.184555218E-1,6.428910047E-2,-9.878333092E0
2.231998437E0,-1.081221476E-1,5.483679473E-2,-9.874932289E0
2.236000000E0,-1.081604511E-1,5.776729807E-2,-9.888675690E0
2.240000000E0,-1.142129973E-1,6.075526029E-2,-9.889307976E0
2.243998437E0,-1.211849153E-1,4.441722855E-2,-9.895465851E0
2.248000000E0,-1.240962595E-1,5.691496283E-2,-9.882316589E0
2.252000000E0,-1.181394905E-1,7.164409012E-2,-9.881397247E0
2.255998437E0,-1.242877990E-1,6.235458702E-2,-9.889078140E0
2.260000000E0,-1.274289936E-1,4.618893936E-2,-9.899277687E0
2.264000000E0,-1.048660353E-1,4.863102362E-2,-9.896490097E0
2.268000000E0,-1.154771373E-1,6.230670586E-2,-9.896327019E0
2.271998437E0,-1.265958101E-1,5.178179592E-2,-9.905827522E0
2.275998437E0,-1.135617718E-1,6.322608143E-2,-9.901317596E0
2.280000000E0,-1.184076369E-1,5.545929074E-2,-9.896575928E0
2.283998437E0,-1.296699643E-1,7.173028588E-2,-9.890648842E0
2.287998437E0,-1.179000735E-1,6.122452393E-2,-9.899564743E0
2.291998437E0,-1.167029664E-1,6.381984055E-2,-9.894881248E0
2.296000000E0,-1.172584221E-1,5.533478782E-2,-9.889489174E0
2.300000000E0,-1.242782176E-1,5.081453547E-2,-9.885687828E0
2.303998437E0,-1.214817986E-1,4.364151135E-2,-9.883388519E0
2.307998437E0,-1.228704304E-1,4.590163380E-2,-9.889259338E0
2.312000000E0,-1.190684363E-1,6.163632870E-2,-9.894085884E0
2.315998437E0,-1.207826808E-1,6.339845806E-2,-9.884318352E0
2.319998437E0,-1.240483746E-1,6.038176641E-2,-9.880736351E0
2.323998437E0,-1.176510677E-1,6.980534643E-2,-9.886090279E0
2.328000000E0,-1.272087246E-1,6.825389713E-2,-9.884413719E0
2.331998437E0,-1.196047366E-1,7.513962686E-2,-9.891146660E0
2.336000000E0,-1.222862452E-1,5.683834851E-2,-9.885352135E0
2.339998437E0,-1.253987104E-1,5.824613944E-2,-9.892668724E0
2.344000000E0,-1.191546321E-1,5.012500659E-2,-9.876713753E0
2.347998437E0,-1.265191883E-1,5.470272154E-2,-9.893856049E0
2.351998437E0,-1.259445846E-1,6.472006440E-2,-9.890208244E0
2.355998437E0,-1.187140942E-1,6.645346433E-2,-9.904065132E0
2.360000000E0,-1.140214652E-1,4.486734048E-2,-9.898893356E0
2.364000000E0,-1.204762235E-1,6.337931007E-2,-9.889116287E0
2.367998437E0,-1.221042871E-1,6.090849265E-2,-9.899506569E0
2.371998437E0,-1.259158552E-1,6.331226975E-2,-9.901393890E0
2.376000000E0,-1.193844751E-1,5.444414541E-2,-9.900598526E0
2.379998437E0,-1.109185815E-1,6.159802154E-2,-9.898156166E0
2.384000000E0,-1.169615388E-1,5.603389814E-2,-9.876953125E0
2.387998437E0,-1.139256954E-1,5.932832137E-2,-9.888273239E0
2.392000000E0,-1.262893528E-1,6.064033881E-2,-9.896557808E0
2.395998437E0,-1.150844842E-1,5.330450833E-2,-9.894459724E0
2.400000000E0,-1.144045368E-1,5.268201604E-2,-9.878476143E0
2.403998437E0,-1.101141274E-1,5.727888271E-2,-9.888532639E0
2.408000000E0,-1.120677963E-1,5.609135702E-2,-9.883705139E0
2.411998437E0,-1.211466044E-1,6.980534643E-2,-9.883886337E0
2.415998437E0,-9.703220427E-2,5.424303561E-2,-9.886482239E0
2.420000000E0,-1.274673045E-1,5.414726585E-2,-9.880592346E0
2.424000000E0,-1.167795807E-1,5.261497572E-2,-9.881579399E0
2.427998437E0,-1.180820316E-1,6.318777055E-2,-9.889498711E0
2.431998437E0,-1.200069636E-1,6.079356745E-2,-9.901432037E0
2.436000000E0,-1.049234942E-1,6.277596951E-2,-9.902533531E0
2.440000000E0,-1.191737801E-1,5.596685782E-2,-9.891031265E0
2.443998437E0,-1.147492975E-1,4.851610214E-2,-9.891357422E0
2.447998437E0,-1.151611060E-1,6.548620760E-2,-9.878897667E0
2.452000000E0,-1.151898354E-1,6.658753753E-2,-9.892065048E0
2.456000000E0,-1.237610802E-1,6.106172130E-2,-9.883072853E0
2.459998437E0,-1.139927283E-1,5.021119863E-2,-9.890782356E0
2.463998437E0,-1.183693334E-1,4.727111757E-2,-9.898366928E0
2.468000000E0,-1.155345961E-1,5.287355185E-2,-9.888607979E0
2.471998437E0,-1.145673394E-1,6.791871786E-2,-9.881320000E0
2.475998437E0,-1.211370304E-1,7.003518939E-2,-9.894077301E0
2.480000000E0,-1.320737451E-1,5.450160429E-2,-9.887843132E0
2.484000000E0,-1.089170203E-1,5.415683985E-2,-9.892630577E0
2.487998437E0,-1.279653013E-1,4.859271646E-2,-9.903242111E0
2.491998437E0,-1.346116066E-1,5.533478782E-2,-9.884174347E0
2.495998437E0,-1.278408021E-1,5.297889560E-2,-9.901776314E0
2.500000000E0,-1.352819651E-1,4.855440930E-2,-9.890140533E0
2.503998437E0,-1.239909232E-1,5.614881963E-2,-9.880209923E0
2.508000000E0,-1.185704395E-1,6.492117047E-2,-9.879060745E0
2.512000000E0,-1.248624027E-1,6.830178946E-2,-9.883485794E0
2.516000000E0,-1.104110032E-1,5.257666856E-2,-9.887631416E0
2.520000000E0,-1.109664589E-1,7.130890340E-2,-9.884854317E0
2.524000000E0,-1.125370562E-1,6.337931007E-2,-9.890887260E0
2.528000000E0,-1.245463714E-1,6.611827016E-2,-9.889422417E0
2.532000000E0,-1.182065308E-1,5.482721701E-2,-9.889710426E0
2.536000000E0,-1.189535111E-1,6.266104430E-2,-9.889451027E0
2.540000000E0,-1.179288030E-1,7.084921747E-2,-9.884835243E0
2.544000000E0,-1.215009466E-1,5.908889696E-2,-9.886846542E0
2.548000000E0,-1.140693426E-1,6.872316450E-2,-9.891490936E0
2.552000000E0,-1.197196692E-1,5.280651152E-2,-9.884327888E0
2.556000000E0,-1.178521886E-1,5.992208049E-2,-9.892037392E0
2.560000000E0,-1.111963019E-1,6.946057826E-2,-9.892553329E0
2.564000000E0,-1.167316958E-1,6.725791097E-2,-9.902054787E0
2.567998437E0,-1.249198690E-1,7.404786348E-2,-9.892850876E0
2.572000000E0,-1.283100545E-1,6.173209846E-2,-9.893253326E0
2.575998437E0,-1.369962096E-1,4.993347079E-2,-9.894153595E0
2.580000000E0,-1.333091408E-1,5.175306275E-2,-9.893281937E0
2.583998437E0,-1.127860546E-1,4.669651017E-2,-9.897064209E0
2.587998437E0,-1.215679869E-1,5.822698772E-2,-9.888119698E0
2.592000000E0,-1.130733564E-1,6.072653085E-2,-9.891931534E0
2.596000000E0,-1.205336899E-1,5.759491771E-2,-9.897811890E0
2.599998437E0,-1.172967330E-1,6.061160937E-2,-9.893491745E0
2.603998437E0,-1.238568425E-1,7.143340260E-2,-9.881340027E0
2.608000000E0,-1.241824552E-1,6.438487023E-2,-9.876157761E0
2.612000000E0,-1.233013868E-1,5.818868056E-2,-9.886952400E0
2.616000000E0,-1.267586201E-1,5.855259672E-2,-9.882210732E0
2.619998437E0,-1.176319197E-1,5.885905400E-2,-9.880209923E0
2.624000000E0,-1.092234775E-1,6.404010952E-2,-9.889738083E0
2.627998437E0,-1.218361333E-1,6.665457040E-2,-9.872749329E0
2.631998437E0,-1.188002825E-1,5.067088455E-2,-9.880555153E0
2.635998437E0,-1.197866946E-1,5.396530405E-2,-9.886117935E0
2.640000000E0,-1.214530617E-1,5.813121796E-2,-9.885084152E0
2.643998437E0,-1.224107444E-1,5.652231351E-2,-9.878160477E0
2.647998437E0,-1.147301495E-1,6.713341177E-2,-9.880602837E0
2.651998437E0,-1.120677963E-1,4.722323641E-2,-9.881071091E0
2.656000000E0,-1.226597428E-1,5.857175216E-2,-9.888320923E0
2.659998437E0,-1.137437373E-1,5.798756331E-2,-9.887133598E0
2.663998437E0,-1.088021025E-1,7.615476847E-2,-9.884940147E0
2.667998437E0,-1.116942987E-1,6.464345008E-2,-9.878303528E0
2.672000000E0,-1.208401471E-1,6.771759689E-2,-9.892055511E0
2.675998437E0,-1.299859881E-1,6.357084215E-2,-9.892688751E0
2.680000000E0,-1.119049937E-1,6.054457277E-2,-9.898865700E0
2.683998437E0,-1.091660261E-1,4.602613300E-2,-9.888043404E0
2.688000000E0,-1.207156554E-1,4.331589863E-2,-9.881320000E0
2.691998437E0,-1.188864857E-1,5.815037340E-2,-9.885237694E0
2.695998437E0,-1.193078607E-1,5.862921104E-2,-9.872806549E0
2.699998437E0,-1.167029664E-1,5.731718987E-2,-9.892123222E0
2.704000000E0,-1.295646280E-1,5.349604413E-2,-9.892209053E0
2.707998437E0,-1.201410443E-1,6.611827016E-2,-9.881224632E0
2.711998437E0,-1.192120910E-1,8.077079058E-2,-9.890016556E0
2.715998437E0,-1.266724169E-1,4.996220022E-2,-9.875497818E0
2.720000000E0,-1.243261024E-1,4.992389306E-2,-9.882804871E0
2.723998437E0,-1.106216982E-1,4.987601191E-2,-9.893980980E0
2.727998437E0,-1.110526472E-1,5.569870770E-2,-9.890475273E0
2.731998437E0,-1.016769558E-1,5.326620117E-2,-9.892497063E0
2.736000000E0,-1.189535111E-1,6.212474406E-2,-9.883216858E0
2.739998437E0,-1.130733564E-1,5.085284263E-2,-9.880132675E0
2.743998437E0,-1.169806942E-1,5.443457142E-2,-9.885553360E0
2.747998437E0,-1.114069894E-1,5.805460364E-2,-9.886147499E0
2.751998437E0,-1.164731234E-1,5.668511987E-2,-9.882421494E0
2.755998437E0,-1.090127975E-1,6.045838073E-2,-9.889921188E0
2.760000000E0,-1.231673136E-1,4.470453411E-2,-9.885543823E0
2.764000000E0,-1.078827307E-1,6.753564626E-2,-9.887516975E0
2.768000000E0,-1.036402062E-1,6.436571479E-2,-9.881043434E0
2.772000000E0,-1.114740297E-1,6.909666210E-2,-9.890581131E0
2.775998437E0,-1.111101136E-1,6.129156426E-2,-9.885093689E0
2.780000000E0,-1.159368232E-1,4.137180746E-2,-9.898644447E0
2.784000000E0,-1.267873496E-1,6.178955734E-2,-9.890974045E0
2.787998437E0,-1.312405616E-1,5.312254652E-2,-9.896510124E0
2.791998437E0,-1.233301163E-1,4.348828271E-2,-9.889661789E0
2.796000000E0,-1.090127975E-1,5.091030523E-2,-9.882039070E0
2.799998437E0,-1.132457405E-1,6.854120642E-2,-9.884720802E0
2.803998437E0,-1.242494881E-1,4.868848249E-2,-9.886204720E0
2.807998437E0,-1.163103208E-1,5.078580603E-2,-9.891836166E0
2.812000000E0,-1.119049937E-1,6.876147538E-2,-9.888628006E0
2.815998437E0,-1.108898446E-1,6.495948136E-2,-9.892754555E0
2.819998437E0,-1.100566611E-1,5.892609432E-2,-9.883044243E0
2.823998437E0,-1.085626855E-1,4.067269713E-2,-9.886386871E0
2.828000000E0,-1.166455075E-1,6.149267405E-2,-9.888024330E0
2.831998437E0,-1.333857775E-1,6.106172130E-2,-9.880506516E0
2.835998437E0,-1.199878156E-1,5.503791198E-2,-9.890092850E0
2.839998437E0,-1.125849411E-1,6.464345008E-2,-9.897916794E0
2.844000000E0,-1.354160458E-1,6.006573141E-2,-9.893549919E0
2.848000000E0,-1.229949296E-1,5.950070173E-2,-9.891625404E0
2.851998437E0,-1.180149913E-1,6.260358542E-2,-9.878504753E0
2.855998437E0,-1.060727164E-1,5.310339481E-2,-9.891720772E0
2.860000000E0,-1.163773611E-1,5.363012105E-2,-9.895033836E0
2.863998437E0,-1.272949129E-1,6.286215782E-2,-9.896930695E0
2.867998437E0,-1.230811253E-1,6.390602887E-2,-9.898328781E0
2.871998437E0,-1.040424258E-1,4.353616387E-2,-9.892467499E0
2.876000000E0,-1.181394905E-1,4.806599393E-2,-9.885534286E0
2.879998437E0,-1.168178841E-1,6.334099919E-2,-9.881215096E0
2.883998437E0,-1.174403876E-1,6.730580330E-2,-9.880305290E0
2.887998437E0,-1.179575250E-1,5.276820436E-2,-9.879874229E0
2.891998437E0,-1.232343540E-1,4.652412981E-2,-9.889528275E0
2.895998437E0,-1.360960156E-1,3.402639553E-2,-9.884288788E0
2.899998437E0,-1.310298741E-1,4.720408097E-2,-9.885025978E0
2.903998437E0,-1.296603829E-1,5.167644843E-2,-9.870604515E0
2.907998437E0,-1.241632998E-1,5.473145097E-2,-9.890419006E0
2.911998437E0,-1.127381697E-1,6.945100427E-2,-9.869626999E0
2.915998437E0,-1.145290285E-1,6.471048295E-2,-9.893559456E0
2.920000000E0,-1.302254200E-1,5.253836140E-2,-9.896921158E0
2.924000000E0,-1.214722171E-1,4.950251430E-2,-9.899401665E0
2.927998437E0,-1.139448434E-1,5.514325202E-2,-9.886807442E0
2.931998437E0,-1.251784414E-1,5.324704573E-2,-9.884998322E0
2.936000000E0,-1.283962578E-1,5.159983411E-2,-9.891720772E0
2.940000000E0,-1.212615296E-1,7.492893934E-2,-9.887201309E0
2.943998437E0,-1.197675467E-1,5.170518160E-2,-9.884567261E0
2.947998437E0,-1.222096309E-1,5.315127969E-2,-9.880555153E0
2.952000000E0,-1.051916406E-1,5.218401924E-2,-9.887967110E0
2.956000000E0,-1.111101136E-1,5.750872567E-2,-9.884424210E0
2.959998437E0,-1.221617535E-1,4.926309735E-2,-9.881186485E0
2.963998437E0,-1.235025004E-1,5.888778716E-2,-9.888934135E0
2.968000000E0,-1.127285883E-1,5.556463078E-2,-9.891634941E0
2.972000000E0,-1.169136614E-1,6.421248615E-2,-9.894583702E0
2.975998437E0,-1.275822222E-1,6.099468097E-2,-9.888857841E0
2.979998437E0,-1.297753155E-1,6.141605973E-2,-9.894306183E0
2.984000000E0,-1.219702139E-1,6.278554350E-2,-9.893568993E0
2.987998437E0,-1.225448251E-1,5.141787603E-2,-9.895053864E0
2.991998437E0,-1.132840514E-1,5.950070173E-2,-9.879797935E0
2.995998437E0,-1.188577488E-1,5.809291080E-2,-9.889891624E0
3.000000000E0,-9.867942333E-2,5.313212425E-2,-9.892180443E0
3.004000000E0,-1.165976226E-1,7.061937451E-2,-9.893483162E0
3.008000000E0,-1.261457056E-1,5.355350673E-2,-9.881999969E0
3.011998437E0,-1.375229508E-1,4.399584979E-2,-9.890102386E0
3.016000000E0,-1.149887145E-1,5.467398837E-2,-9.877269745E0
3.019998437E0,-1.301009208E-1,4.915774986E-2,-9.878620148E0
3.024000000E0,-1.185608655E-1,5.525817350E-2,-9.890255928E0
3.027998437E0,-1.247857884E-1,5.083369091E-2,-9.896634102E0
3.032000000E0,-1.214817986E-1,5.957731605E-2,-9.881023407E0
3.035998437E0,-1.036593542E-1,4.893748090E-2,-9.893808365E0
3.039998437E0,-1.254178584E-1,5.879201367E-2,-9.900465012E0
3.043998437E0,-1.243165284E-1,6.071695313E-2,-9.888723373E0
3.048000000E0,-1.186662167E-1,5.240428448E-2,-9.894115448E0
3.051998437E0,-1.088404059E-1,5.430049449E-2,-9.896854401E0
3.056000000E0,-1.081317291E-1,5.356308073E-2,-9.893568993E0
3.059998437E0,-9.878475964E-2,6.151182950E-2,-9.903557777E0
3.064000000E0,-1.133989692E-1,5.359181389E-2,-9.887430191E0
3.067998437E0,-1.212232187E-1,5.462610722E-2,-9.887372971E0
3.072000000E0,-1.115506440E-1,6.416460127E-2,-9.890552521E0
3.075998437E0,-1.109185815E-1,6.071695313E-2,-9.896442413E0
3.079998437E0,-1.210604161E-1,5.792052671E-2,-9.888694763E0
3.083998437E0,-1.207922697E-1,6.564901024E-2,-9.883695602E0
3.087998437E0,-1.226884723E-1,6.897216290E-2,-9.899478912E0
3.092000000E0,-1.336635053E-1,6.352295727E-2,-9.883456230E0
3.095998437E0,-1.315278560E-1,5.943366140E-2,-9.888588905E0
3.099998437E0,-1.144715697E-1,5.589982122E-2,-9.891902924E0
3.103998437E0,-1.183214486E-1,4.500141367E-2,-9.889498711E0
3.108000000E0,-1.354926676E-1,5.582320690E-2,-9.882719040E0
3.112000000E0,-1.200357005E-1,7.009264827E-2,-9.880056381E0
3.115998437E0,-1.174978390E-1,5.113057420E-2,-9.884336472E0
3.119998437E0,-1.085626855E-1,6.183744222E-2,-9.886425018E0
3.124000000E0,-1.288750917E-1,6.242162734E-2,-9.895015717E0
3.127998437E0,-1.267107278E-1,7.083006203E-2,-9.905099869E0
3.131998437E0,-1.236461550E-1,5.438668281E-2,-9.889269829E0
3.135998437E0,-1.115793735E-1,5.424303561E-2,-9.885131836E0
3.140000000E0,-1.148737967E-1,5.667554215E-2,-9.891701698E0
3.143998437E0,-1.171530783E-1,5.182010308E-2,-9.893568993E0
3.147998437E0,-1.233109683E-1,6.016149744E-2,-9.899956703E0
3.151998437E0,-1.143087670E-1,5.243301764E-2,-9.900080681E0
3.156000000E0,-1.151227951E-1,4.909071326E-2,-9.885860443E0
3.159998437E0,-1.162432805E-1,5.169560388E-2,-9.891126633E0
3.163998437E0,-1.187332571E-1,5.924212560E-2,-9.893204689E0
3.167998437E0,-1.164731234E-1,6.112875789E-2,-9.895675659E0
3.172000000E0,-1.180437207E-1,6.691315025E-2,-9.895216942E0
3.176000000E0,-1.096544340E-1,7.393294573E-2,-9.895149231E0
3.179998437E0,-1.144141108E-1,5.824613944E-2,-9.901805878E0
3.183998437E0,-1.267777681E-1,5.904101580E-2,-9.909093857E0
3.188000000E0,-1.202368066E-1,5.642654374E-2,-9.891069412E0
3.191998437E0,-1.196143180E-1,6.286215782E-2,-9.872471809E0
3.195998437E0,-1.095874012E-1,5.898355320E-2,-9.879223824E0
3.199998437E0,-1.029793993E-1,5.367800221E-2,-9.888139725E0
3.204000000E0,-1.247283295E-1,5.983588845E-2,-9.896173477E0
3.207998437E0,-1.212232187E-1,6.115749106E-2,-9.895627975E0
3.211998437E0,-1.225639731E-1,5.802587047E-2,-9.894737244E0
3.215998437E0,-1.195760146E-1,6.272808462E-2,-9.893013954E0
3.220000000E0,-1.202751175E-1,4.813303053E-2,-9.897840500E0
3.223998437E0,-1.211274490E-1,6.300581247E-2,-9.883533478E0
3.228000000E0,-1.070112363E-1,7.092583179E-2,-9.890072823E0
3.231998437E0,-1.056896374E-1,6.792829186E-2,-9.887621880E0
3.236000000E0,-1.173446104E-1,6.661626697E-2,-9.887918472E0
3.239998437E0,-1.072793901E-1,6.773675233E-2,-9.889249802E0
3.243998437E0,-1.234641969E-1,6.104256958E-2,-9.898089409E0
3.247998437E0,-1.076624617E-1,6.934566051E-2,-9.899736404E0
3.251998437E0,-1.286548227E-1,4.173572361E-2,-9.886741638E0
3.255998437E0,-1.276396811E-1,4.320097715E-2,-9.896298409E0
3.259998437E0,-1.079018861E-1,5.278735608E-2,-9.887000084E0
3.264000000E0,-1.050479934E-1,6.992026418E-2,-9.897792816E0
3.268000000E0,-1.077965423E-1,7.275500149E-2,-9.887918472E0
3.272000000E0,-1.230523884E-1,5.136999115E-2,-9.881387711E0
3.275998437E0,-1.173924953E-1,5.007712170E-2,-9.887382507E0
3.280000000E0,-1.227363572E-1,4.697423428E-2,-9.887000084E0
3.283998437E0,-1.217786819E-1,6.723876297E-2,-9.885697365E0
3.287998437E0,-1.184938252E-1,5.435795709E-2,-9.886261940E0
3.291998437E0,-1.188864857E-1,5.150406808E-2,-9.885007858E0
3.296000000E0,-1.180437207E-1,3.641101718E-2,-9.887870789E0
3.300000000E0,-1.274864525E-1,4.856398702E-2,-9.883503914E0
3.303998437E0,-1.240771115E-1,6.213432178E-2,-9.896835327E0
3.307998437E0,-1.238568425E-1,5.512410030E-2,-9.903692245E0
3.312000000E0,-1.281185150E-1,6.160759553E-2,-9.888733864E0
3.316000000E0,-1.246038377E-1,6.876147538E-2,-9.897534370E0
3.319998437E0,-1.136671230E-1,5.541140214E-2,-9.885410309E0
3.323998437E0,-1.110813841E-1,4.789361358E-2,-9.885916710E0
3.328000000E0,-1.122593284E-1,6.630022824E-2,-9.899641037E0
3.331998437E0,-1.052203774E-1,5.201163888E-2,-9.888675690E0
3.335998437E0,-1.145003065E-1,4.464707151E-2,-9.889096260E0
3.339998437E0,-1.245846823E-1,4.793192074E-2,-9.879931450E0
3.344000000E0,-1.188194454E-1,5.769068375E-2,-9.892630577E0
3.347998437E0,-1.263372302E-1,6.146394834E-2,-9.895934105E0
3.351998437E0,-1.230715439E-1,6.038176641E-2,-9.901728630E0
3.355998437E0,-1.260116249E-1,4.837245122E-2,-9.878801346E0
3.360000000E0,-1.250060648E-1,4.693592712E-2,-9.888694763E0
3.364000000E0,-1.238664165E-1,7.399041206E-2,-9.896634102E0
3.367998437E0,-1.092139035E-1,6.053499505E-2,-9.890993118E0
3.371998437E0,-1.169232354E-1,5.992208049E-2,-9.886157036E0
3.376000000E0,-1.158602089E-1,4.548983276E-2,-9.887986183E0
3.379998437E0,-1.210316867E-1,5.418557301E-2,-9.887823105E0
3.383998437E0,-1.232630759E-1,5.091987923E-2,-9.893091202E0
3.387998437E0,-1.230140850E-1,6.523720920E-2,-9.896288872E0
3.391998437E0,-1.043393090E-1,6.525636464E-2,-9.892937660E0
3.395998437E0,-1.075571105E-1,5.077622831E-2,-9.892774582E0
3.400000000E0,-1.130542085E-1,6.508397311E-2,-9.888733864E0
3.403998437E0,-1.160134375E-1,6.342719495E-2,-9.893310547E0
3.408000000E0,-1.088212579E-1,5.849513784E-2,-9.888033867E0
3.411998437E0,-1.112154573E-1,4.461834207E-2,-9.890235901E0
3.415998437E0,-1.228512824E-1,5.883990228E-2,-9.886664391E0
3.420000000E0,-1.187907085E-1,6.575435400E-2,-9.884960175E0
3.424000000E0,-1.231194288E-1,5.643612146E-2,-9.887201309E0
3.427998437E0,-1.213572919E-1,5.743211135E-2,-9.892745972E0
3.431998437E0,-1.178042963E-1,5.637866259E-2,-9.906699181E0
3.436000000E0,-1.204666495E-1,5.552632362E-2,-9.887325287E0
3.439998437E0,-1.277450323E-1,6.810066849E-2,-9.881703377E0
3.443998437E0,-1.173158810E-1,7.119398564E-2,-9.890303612E0
3.447998437E0,-1.274098307E-1,6.695145369E-2,-9.896987915E0
3.452000000E0,-1.179958358E-1,6.290046871E-2,-9.891510010E0
3.455998437E0,-1.257051677E-1,5.085284263E-2,-9.894326210E0
3.459998437E0,-1.271895617E-1,5.907932296E-2,-9.894784927E0
3.463998437E0,-1.200069636E-1,5.915593728E-2,-9.888320923E0
3.468000000E0,-1.116847247E-1,6.397306919E-2,-9.896193504E0
3.471998437E0,-1.130350530E-1,5.221274868E-2,-9.891921997E0
3.476004687E0,-1.084286049E-1,4.956955463E-2,-9.888139725E0
3.479998437E0,-1.090223715E-1,5.910805240E-2,-9.878916740E0
3.484000000E0,-1.177851483E-1,5.766195431E-2,-9.885572433E0
3.488000000E0,-1.155920550E-1,6.522762775E-2,-9.887631416E0
3.491998437E0,-1.140597686E-1,5.266286060E-2,-9.893109322E0
3.495998437E0,-1.174499616E-1,7.032249123E-2,-9.899411201E0
3.500000000E0,-1.016961113E-1,5.987419561E-2,-9.890628815E0
3.503998437E0,-1.133415103E-1,4.271255806E-2,-9.884145737E0
3.507998437E0,-1.113591045E-1,5.402276665E-2,-9.877183914E0
3.511998437E0,-1.112346128E-1,6.122452393E-2,-9.885649681E0
3.516000000E0,-1.130829304E-1,5.588066950E-2,-9.894440651E0
3.519998437E0,-1.266245395E-1,6.325481087E-2,-9.874396324E0
3.523998437E0,-1.179575250E-1,5.630204827E-2,-9.883800507E0
3.527998437E0,-1.208976060E-1,5.188713968E-2,-9.892429352E0
3.532000000E0,-1.134276986E-1,4.765418917E-2,-9.888636589E0
3.535998437E0,-1.229566187E-1,5.216486752E-2,-9.892391205E0
3.540000000E0,-1.271321177E-1,6.169379130E-2,-9.884270668E0
3.543998437E0,-1.244601831E-1,5.449203029E-2,-9.890954971E0
3.548000000E0,-1.244889125E-1,4.700296745E-2,-9.889020920E0
3.551998437E0,-1.094150171E-1,6.401137263E-2,-9.897380829E0
3.556000000E0,-1.184172109E-1,5.496129766E-2,-9.903510094E0
3.559998437E0,-1.131308228E-1,5.826529488E-2,-9.884279251E0
3.564000000E0,-1.081317291E-1,6.407841295E-2,-9.879214287E0
3.568000000E0,-1.213477179E-1,4.187937453E-2,-9.884777069E0
3.571998437E0,-1.151994094E-1,5.728846043E-2,-9.882479668E0
3.576001562E0,-1.210316867E-1,6.282385439E-2,-9.886990547E0
3.579998437E0,-1.177659929E-1,7.104075700E-2,-9.887870789E0
3.583998437E0,-1.059099063E-1,5.986462161E-2,-9.889758110E0
3.587998437E0,-1.145098805E-1,5.601474270E-2,-9.883072853E0
3.592000000E0,-1.229183152E-1,6.264188886E-2,-9.896125793E0
3.596000000E0,-9.978074580E-2,5.535394326E-2,-9.898070335E0
3.599998437E0,-1.111867279E-1,5.697242171E-2,-9.884261131E0
3.603998437E0,-1.208976060E-1,6.004657596E-2,-9.879730225E0
3.608000000E0,-1.256189793E-1,4.896621406E-2,-9.887908936E0
3.611998437E0,-1.114644557E-1,5.530606210E-2,-9.877173424E0
3.615998437E0,-1.235216558E-1,5.163814127E-2,-9.886339188E0
3.619998437E0,-1.175457239E-1,5.555505678E-2,-9.886290550E0
3.624000000E0,-1.212998331E-1,5.993165448E-2,-9.890427589E0
3.627998437E0,-1.179766878E-1,5.687665567E-2,-9.887372971E0
3.631998437E0,-1.131308228E-1,5.374504253E-2,-9.887056351E0
3.635998437E0,-1.248624027E-1,6.595546752E-2,-9.904563904E0
3.640000000E0,-1.266053915E-1,5.424303561E-2,-9.889509201E0
3.643998437E0,-1.179383770E-1,5.355350673E-2,-9.877087593E0
3.647998437E0,-1.116272584E-1,5.632119998E-2,-9.885505676E0
3.651998437E0,-1.192312464E-1,3.608540818E-2,-9.890571594E0
3.656000000E0,-1.120103300E-1,5.074749887E-2,-9.898089409E0
3.659998437E0,-1.204187721E-1,4.714662209E-2,-9.895944595E0
3.663998437E0,-1.340369880E-1,4.865017533E-2,-9.889997482E0
3.667998437E0,-1.213572919E-1,5.456864461E-2,-9.875315666E0
3.672000000E0,-1.240004972E-1,5.122634023E-2,-9.896566391E0
3.675998437E0,-1.112920716E-1,5.479848757E-2,-9.877882957E0
3.679998437E0,-1.282334477E-1,4.745307937E-2,-9.891021729E0
3.683998437E0,-1.167029664E-1,6.422206759E-2,-9.893013954E0
3.688000000E0,-1.148737967E-1,5.644569919E-2,-9.894603729E0
3.691998437E0,-1.166167781E-1,6.087018549E-2,-9.890791893E0
3.695998437E0,-1.260690838E-1,6.791871786E-2,-9.900627136E0
3.699998437E0,-1.310394406E-1,5.887820944E-2,-9.886366844E0
3.704000000E0,-1.242207661E-1,5.421430245E-2,-9.890217781E0
3.707998437E0,-1.246708706E-1,5.935704708E-2,-9.881292343E0
3.711998437E0,-1.078061163E-1,6.341761351E-2,-9.901240349E0
3.715998437E0,-1.140693426E-1,4.487691447E-2,-9.891739845E0
3.720000000E0,-1.162624359E-1,6.883808970E-2,-9.893942833E0
3.723998437E0,-1.120773703E-1,6.059245765E-2,-9.891347885E0
3.728000000E0,-1.157452837E-1,5.610093474E-2,-9.907657623E0
3.731998437E0,-1.257530451E-1,4.726154357E-2,-9.896030426E0
3.736000000E0,-1.229757741E-1,6.766013801E-2,-9.877163887E0
3.739998437E0,-1.075092331E-1,6.136817858E-2,-9.883782387E0
3.743998437E0,-1.101524383E-1,5.017289147E-2,-9.895637512E0
3.747998437E0,-1.294880062E-1,3.756981343E-2,-9.895675659E0
3.752000000E0,-1.289133877E-1,6.265147030E-2,-9.883724213E0
3.756000000E0,-1.256860197E-1,5.870582536E-2,-9.887555122E0
3.759998437E0,-1.281472445E-1,6.846459210E-2,-9.890045166E0
3.764000000E0,-1.059290618E-1,4.799895361E-2,-9.886253357E0
3.767998437E0,-1.079593450E-1,5.883990228E-2,-9.882316589E0
3.771998437E0,-1.239047274E-1,4.446511343E-2,-9.896327019E0
3.775998437E0,-1.188385934E-1,5.521029234E-2,-9.898060799E0
3.780000000E0,-1.183597594E-1,6.434656680E-2,-9.894344330E0
3.784000000E0,-1.101620123E-1,5.566997826E-2,-9.898300171E0
3.787998437E0,-1.231385767E-1,4.830541089E-2,-9.903491020E0
3.791998437E0,-1.181873679E-1,5.852386355E-2,-9.897514343E0
3.796000000E0,-1.057758331E-1,5.700115487E-2,-9.899401665E0
3.800000000E0,-1.266341209E-1,6.032430753E-2,-9.893856049E0
3.803998437E0,-1.199399233E-1,5.825571343E-2,-9.891788483E0
3.807998437E0,-1.212519556E-1,5.294058472E-2,-9.884107590E0
3.812000000E0,-1.308766454E-1,6.095637381E-2,-9.887794495E0
3.815998437E0,-1.322173923E-1,5.741295591E-2,-9.903250694E0
3.819998437E0,-1.128147840E-1,6.154056266E-2,-9.900005341E0
3.823998437E0,-1.203038469E-1,6.671203673E-2,-9.890188217E0
3.828000000E0,-1.164731234E-1,5.666596442E-2,-9.903099060E0
3.831998437E0,-1.279748678E-1,5.458780006E-2,-9.897093773E0
3.835998437E0,-1.261457056E-1,6.389645487E-2,-9.888455391E0
3.839998437E0,-1.155058667E-1,6.233543530E-2,-9.884625435E0
3.844000000E0,-1.206294522E-1,4.731900245E-2,-9.895829201E0
3.848000000E0,-1.251305491E-1,6.773675233E-2,-9.899343491E0
3.851998437E0,-1.306468099E-1,6.151182950E-2,-9.897792816E0
3.855998437E0,-1.158985123E-1,5.800671875E-2,-9.878006935E0
3.860000000E0,-1.181586459E-1,4.834371805E-2,-9.898405075E0
3.863998437E0,-1.140789241E-1,4.497268423E-2,-9.895800591E0
3.867998437E0,-1.249102950E-1,5.757576227E-2,-9.894497871E0
3.871998437E0,-1.294592768E-1,6.719087809E-2,-9.878064156E0
3.876006250E0,-1.121827140E-1,5.680961534E-2,-9.885390282E0
3.879998437E0,-1.205815747E-1,6.317819655E-2,-9.876101494E0
3.884000000E0,-1.259350181E-1,5.182967708E-2,-9.890351295E0
3.887998437E0,-1.271225363E-1,5.956773832E-2,-9.875861168E0
3.891998437E0,-1.176510677E-1,5.227021128E-2,-9.891654015E0
3.896000000E0,-1.119432971E-1,4.435019195E-2,-9.896661758E0
3.899998437E0,-1.054502204E-1,5.105395988E-2,-9.896566391E0
3.903998437E0,-1.202368066E-1,6.400179863E-2,-9.876331329E0
3.908000000E0,-1.213956028E-1,5.805460364E-2,-9.892688751E0
3.911998437E0,-1.214051843E-1,7.330088317E-2,-9.893454552E0
3.915998437E0,-1.067239344E-1,6.002742425E-2,-9.883589745E0
3.919998437E0,-1.264617294E-1,5.555505678E-2,-9.893491745E0
3.923998437E0,-1.200165376E-1,5.566997826E-2,-9.883561134E0
3.927998437E0,-1.167316958E-1,5.586151406E-2,-9.883752823E0
3.931998437E0,-1.078635678E-1,4.978024215E-2,-9.883733749E0
3.936000000E0,-1.234163046E-1,4.992389306E-2,-9.895714760E0
3.940000000E0,-1.243356839E-1,4.131434485E-2,-9.883868217E0
3.943998437E0,-1.256572753E-1,6.561069936E-2,-9.872787476E0
3.947998437E0,-1.335581541E-1,5.945281684E-2,-9.873764992E0
3.952000000E0,-1.202080771E-1,5.502833053E-2,-9.883418083E0
3.956000000E0,-1.240100712E-1,6.221093610E-2,-9.890341759E0
3.959998437E0,-1.163773611E-1,6.030515209E-2,-9.884011269E0
3.963998437E0,-1.086584479E-1,5.522944778E-2,-9.891845703E0
3.968000000E0,-1.243261024E-1,4.860229418E-2,-9.893866539E0
3.971998437E0,-1.325813085E-1,5.612008646E-2,-9.895657539E0
3.975998437E0,-1.192216650E-1,5.496129766E-2,-9.894382477E0
3.979998437E0,-1.251784414E-1,4.383304715E-2,-9.890007019E0
3.984000000E0,-1.040041223E-1,5.716396123E-2,-9.883418083E0
3.987998437E0,-1.186087504E-1,6.105214357E-2,-9.890993118E0
3.991998437E0,-1.182448342E-1,6.701849401E-2,-9.887114525E0
3.995998437E0,-1.170094237E-1,6.155013666E-2,-9.877911568E0
4.000000000E0,-1.163965091E-1,6.051584333E-2,-9.894402504E0
4.003998437E0,-1.086871773E-1,5.619670078E-2,-9.881320000E0
4.008000000E0,-1.132553145E-1,5.408980697E-2,-9.880784035E0
4.011998437E0,-1.111579984E-1,5.302678049E-2,-9.893310547E0
4.016000000E0,-1.207635328E-1,5.592855066E-2,-9.891989708E0
4.020000000E0,-1.177659929E-1,5.272032320E-2,-9.894220352E0
4.024000000E0,-1.294880062E-1,5.138914660E-2,-9.912674904E0
4.027998437E0,-1.155441776E-1,6.396349519E-2,-9.886664391E0
4.032000000E0,-1.219223216E-1,5.703946203E-2,-9.882804871E0
4.035998437E0,-1.184842512E-1,6.066907197E-2,-9.890170097E0
4.039998437E0,-1.170190051E-1,4.653370380E-2,-9.890160561E0
4.043998437E0,-1.167604327E-1,5.494214222E-2,-9.883139610E0
4.048000000E0,-1.153622121E-1,4.687846825E-2,-9.888570786E0
4.051998437E0,-1.112824902E-1,5.255751312E-2,-9.886117935E0
4.056000000E0,-1.142129973E-1,5.838021636E-2,-9.890371323E0
4.059998437E0,-1.175170019E-1,4.729027301E-2,-9.899506569E0
4.064000000E0,-1.207731068E-1,5.163814127E-2,-9.894622803E0
4.067998437E0,-1.198058575E-1,4.025131837E-2,-9.880707741E0
4.071998437E0,-1.258967072E-1,4.927267134E-2,-9.886261940E0
4.076004687E0,-1.189535111E-1,5.586151406E-2,-9.898395538E0
4.080000000E0,-1.255232096E-1,5.321831629E-2,-9.887401581E0
4.083998437E0,-1.209359095E-1,6.042007357E-2,-9.878582001E0
4.087998437E0,-1.141076535E-1,6.255570054E-2,-9.885677338E0
4.092000000E0,-1.157261357E-1,5.818868056E-2,-9.891845703E0
4.095998437E0,-1.024047956E-1,5.303635821E-2,-9.878859520E0
4.099998437E0,-1.100662351E-1,6.489244103E-2,-9.884231567E0
4.103998437E0,-1.028261706E-1,5.716396123E-2,-9.886635780E0
4.108000000E0,-1.224298999E-1,5.511452630E-2,-9.889699936E0
4.112000000E0,-1.242399141E-1,5.315127969E-2,-9.890820503E0
4.115998437E0,-1.126998588E-1,5.430049449E-2,-9.894986153E0
4.119998437E0,-1.044925377E-1,5.478890985E-2,-9.899909019E0
4.124000000E0,-1.226693168E-1,5.773856863E-2,-9.890600204E0
4.127998437E0,-1.160613224E-1,7.511088997E-2,-9.894603729E0
4.131998437E0,-1.202176586E-1,7.715075463E-2,-9.885515213E0
4.135998437E0,-1.146439537E-1,7.071514428E-2,-9.887947083E0
4.140000000E0,-1.185129881E-1,5.875370651E-2,-9.878916740E0
4.143998437E0,-1.094341725E-1,5.376419425E-2,-9.893464088E0
4.147998437E0,-1.252454817E-1,5.814079195E-2,-9.901086807E0
4.151998437E0,-1.298231930E-1,7.833828032E-2,-9.889929771E0
4.156000000E0,-1.290570498E-1,5.475060269E-2,-9.874195099E0
4.159998437E0,-1.130542085E-1,5.104437843E-2,-9.882115364E0
4.163998437E0,-1.149121001E-1,6.526593864E-2,-9.902839661E0
4.167998437E0,-1.244122982E-1,6.702806801E-2,-9.893617630E0
4.172000000E0,-1.377049088E-1,4.924394190E-2,-9.870355606E0
4.176004687E0,-1.250539422E-1,4.888001829E-2,-9.881254196E0
4.179998437E0,-1.060439870E-1,4.699338973E-2,-9.892218590E0
4.183998437E0,-1.137150005E-1,5.511452630E-2,-9.890246391E0
4.188000000E0,-1.140693426E-1,6.313031167E-2,-9.870547295E0
4.192000000E0,-1.076050028E-1,7.473740727E-2,-9.876992226E0
4.195998437E0,-1.090319455E-1,6.109045073E-2,-9.916027069E0
4.199998437E0,-1.251114011E-1,4.761588201E-2,-9.898300171E0
4.204000000E0,-1.283100545E-1,5.723099783E-2,-9.876196861E0
4.207998437E0,-1.177468449E-1,6.342719495E-2,-9.887162209E0
4.212000000E0,-1.032283977E-1,6.099468097E-2,-9.903461456E0
4.215998437E0,-1.260882467E-1,5.367800221E-2,-9.887056351E0
4.220000000E0,-1.250252128E-1,5.468356609E-2,-9.892007828E0
4.223998437E0,-1.209646463E-1,5.731718987E-2,-9.876455307E0
4.227998437E0,-1.165497378E-1,5.515283346E-2,-9.881981850E0
4.231998437E0,-1.173924953E-1,6.180871278E-2,-9.887420654E0
4.235998437E0,-1.227746680E-1,5.030696467E-2,-9.886712074E0
4.239998437E0,-1.317481399E-1,6.531382352E-2,-9.874990463E0
4.243998437E0,-1.282238662E-1,6.965211779E-2,-9.901738167E0
4.247998437E0,-1.102960780E-1,5.326620117E-2,-9.905262947E0
4.251998437E0,-1.167221218E-1,5.510494485E-2,-9.886090279E0
4.255998437E0,-1.223245561E-1,5.496129766E-2,-9.883782387E0
4.259998437E0,-1.259733140E-1,6.343676895E-2,-9.884892464E0
4.264000000E0,-1.250730902E-1,5.537309498E-2,-9.892630577E0
4.268000000E0,-1.310011446E-1,6.661626697E-2,-9.885256767E0
4.271998437E0,-1.199112013E-1,5.732676759E-2,-9.881780624E0
4.275998437E0,-1.269118488E-1,5.009627715E-2,-9.888484001E0
4.280000000E0,-1.220180988E-1,5.630204827E-2,-9.899439812E0
4.284000000E0,-1.100662351E-1,5.689580739E-2,-9.902772903E0
4.287998437E0,-1.140214652E-1,5.833232775E-2,-9.886990547E0
4.291998437E0,-1.191259027E-1,5.373546109E-2,-9.893416405E0
4.296000000E0,-1.280323267E-1,5.685750023E-2,-9.894814491E0
4.299998437E0,-1.228704304E-1,6.194278598E-2,-9.884519577E0
4.303998437E0,-1.222575158E-1,5.711607635E-2,-9.885840416E0
4.307998437E0,-1.260690838E-1,5.479848757E-2,-9.883925438E0
4.312000000E0,-1.181394905E-1,5.255751312E-2,-9.887594223E0
4.316000000E0,-9.911037236E-2,5.954858288E-2,-9.896815300E0
4.319998437E0,-1.129871681E-1,5.511452630E-2,-9.899343491E0
4.324000000E0,-1.197962835E-1,6.084145233E-2,-9.890130997E0
4.328000000E0,-1.185800284E-1,4.984727874E-2,-9.883131027E0
4.331998437E0,-1.224011704E-1,4.212837294E-2,-9.878705978E0
4.335998437E0,-1.111963019E-1,6.034345925E-2,-9.892822266E0
4.339998437E0,-1.169328094E-1,5.998911709E-2,-9.890235901E0
4.344000000E0,-1.037551239E-1,5.940493569E-2,-9.882431984E0
4.348000000E0,-1.120677963E-1,4.703169689E-2,-9.883034706E0
4.351998437E0,-1.297274381E-1,5.319916084E-2,-9.890170097E0
4.355998437E0,-1.294496953E-1,6.172252074E-2,-9.888598442E0
4.360000000E0,-1.222383678E-1,5.682877079E-2,-9.871810913E0
4.363998437E0,-1.243931428E-1,5.298847333E-2,-9.883666992E0
4.367998437E0,-1.198824719E-1,4.743392393E-2,-9.884816170E0
4.371998437E0,-1.207060665E-1,5.208825320E-2,-9.883359909E0
4.376001562E0,-1.219989359E-1,6.449022144E-2,-9.888444901E0
4.379998437E0,-1.230619624E-1,3.689943627E-2,-9.884011269E0
4.383998437E0,-1.212519556E-1,3.808695823E-2,-9.887201309E0
4.387998437E0,-1.169519648E-1,6.974788755E-2,-9.895149231E0
4.392000000E0,-1.201889291E-1,6.039134040E-2,-9.885237694E0
4.395998437E0,-1.060439870E-1,7.376056910E-2,-9.887689590E0
4.399998437E0,-1.236365736E-1,5.224148184E-2,-9.890859604E0
4.403998437E0,-1.187140942E-1,4.851610214E-2,-9.894105911E0
4.407998437E0,-1.119049937E-1,3.345178440E-2,-9.897830963E0
4.412000000E0,-1.061876342E-1,5.507621914E-2,-9.887458801E0
4.415998437E0,-1.136192307E-1,6.300581247E-2,-9.868037224E0
4.419998437E0,-1.283675283E-1,6.227797270E-2,-9.880592346E0
4.423998437E0,-1.265862286E-1,7.654741406E-2,-9.889030457E0
4.427998437E0,-1.236653030E-1,6.371449679E-2,-9.884270668E0
4.431998437E0,-1.270076185E-1,6.515101343E-2,-9.878045082E0
4.436000000E0,-1.123934016E-1,4.231033474E-2,-9.892142296E0
4.440000000E0,-1.082274914E-1,5.609135702E-2,-9.901862144E0
4.443998437E0,-1.093767062E-1,5.099649727E-2,-9.882364273E0
4.447998437E0,-1.227459311E-1,6.685569137E-2,-9.889460564E0
4.452000000E0,-1.087637916E-1,4.797980189E-2,-9.884030342E0
4.455998437E0,-1.140789241E-1,4.862144962E-2,-9.898902893E0
4.459998437E0,-1.126902848E-1,6.343676895E-2,-9.878935814E0
4.463998437E0,-1.175936162E-1,6.581181288E-2,-9.880162239E0
4.468000000E0,-1.209838018E-1,5.910805240E-2,-9.873754501E0
4.471998437E0,-1.179479510E-1,5.331408232E-2,-9.877843857E0
4.476004687E0,-1.237323433E-1,6.306327134E-2,-9.877575874E0
4.479998437E0,-1.154388264E-1,5.306508765E-2,-9.881568909E0
4.484000000E0,-1.085818335E-1,4.888959974E-2,-9.894651413E0
4.487998437E0,-1.187045202E-1,6.382941455E-2,-9.900656700E0
4.491998437E0,-1.421293914E-1,6.406883895E-2,-9.879549026E0
4.495998437E0,-1.172009557E-1,5.616797134E-2,-9.874223709E0
4.500000000E0,-1.155920550E-1,5.383123085E-2,-9.909696579E0
4.503998437E0,-1.261840016E-1,5.451118574E-2,-9.871322632E0
4.507998437E0,-1.153717861E-1,6.654923409E-2,-9.856870651E0
4.511998437E0,-1.232630759E-1,6.132987142E-2,-9.893061638E0
4.516000000E0,-9.323021770E-2,4.647624120E-2,-9.908432961E0
4.520000000E0,-1.045116931E-1,5.238513276E-2,-9.908432961E0
4.523998437E0,-1.254657507E-1,6.008488312E-2,-9.872950554E0
4.527998437E0,-1.158602089E-1,5.499960482E-2,-9.872126579E0
4.532000000E0,-1.170285791E-1,5.049850047E-2,-9.901901245E0
4.535998437E0,-1.145386100E-1,6.246950850E-2,-9.896107674E0
4.539998437E0,-1.225735471E-1,5.150406808E-2,-9.867070198E0
4.543998437E0,-1.225065142E-1,5.526775494E-2,-9.893329620E0
4.548000000E0,-1.087350622E-1,3.750277683E-2,-9.903136253E0
4.551998437E0,-1.025580242E-1,5.620627850E-2,-9.887689590E0
4.556000000E0,-1.110047698E-1,5.241386592E-2,-9.889039040E0
4.559998437E0,-1.174978390E-1,5.315127969E-2,-9.885275841E0
4.564000000E0,-1.033433229E-1,4.047158360E-2,-9.882613182E0
4.567998437E0,-1.312309802E-1,3.253241256E-2,-9.876168251E0
4.571998437E0,-1.248719841E-1,4.847779498E-2,-9.872883797E0
4.575998437E0,-1.025580242E-1,5.148491263E-2,-9.907216072E0
4.580000000E0,-1.135138944E-1,7.712202519E-2,-9.926255226E0
4.583998437E0,-1.186183318E-1,6.404010952E-2,-9.895829201E0
4.587998437E0,-1.231960431E-1,4.102703929E-2,-9.879769325E0
4.592000000E0,-8.726385981E-2,6.360915303E-2,-9.898712158E0
4.596000000E0,-1.043010056E-1,5.554547906E-2,-9.891941071E0
4.599998437E0,-1.238664165E-1,4.806599393E-2,-9.827911377E0
4.603998437E0,-1.159272492E-1,5.885905400E-2,-9.862234116E0
4.608000000E0,-1.099704728E-1,4.956955463E-2,-9.933120728E0
4.612000000E0,-1.059290618E-1,6.826347858E-2,-9.926838875E0
4.615998437E0,-1.383273900E-1,8.198704571E-2,-9.897706032E0
4.619998437E0,-1.351191700E-1,6.693230569E-2,-9.872500420E0
4.624000000E0,-1.018206105E-1,5.068046227E-2,-9.895072937E0
4.627998437E0,-1.136383861E-1,3.442861885E-2,-9.905405998E0
4.631998437E0,-1.118092164E-1,5.195417628E-2,-9.848501205E0
4.635998437E0,-1.029027849E-1,5.002924055E-2,-9.856401443E0
4.640000000E0,-1.172105372E-1,6.402094662E-2,-9.926445961E0
4.644000000E0,-1.063217074E-1,4.684973881E-2,-9.930966377E0
4.647998437E0,-1.256285608E-1,8.120174706E-2,-9.887775421E0
4.651998437E0,-1.408461034E-1,8.241800219E-2,-9.863316536E0
4.656000000E0,-1.066569015E-1,4.633259028E-2,-9.866217613E0
4.659998437E0,-1.011310816E-1,3.990655392E-2,-9.886366844E0
4.663998437E0,-1.186279058E-1,4.022258893E-2,-9.896385193E0
4.667998437E0,-1.151611060E-1,6.719087809E-2,-9.876044273E0
4.672000000E0,-1.165497378E-1,6.012319028E-2,-9.892286301E0
4.676000000E0,-1.148929521E-1,6.241204962E-2,-9.905683517E0
4.679998437E0,-1.161283553E-1,5.702031031E-2,-9.913086891E0
4.683998437E0,-1.267394572E-1,7.226658612E-2,-9.874109268E0
4.688000000E0,-1.194323599E-1,6.652049720E-2,-9.863286972E0
4.691998437E0,-1.091085598E-1,4.958870634E-2,-9.866303444E0
4.696000000E0,-1.306563765E-1,4.098873213E-2,-9.882057190E0
4.699998437E0,-1.300626099E-1,6.336972862E-2,-9.898980141E0
4.704000000E0,-1.346020252E-1,6.158844382E-2,-9.908125877E0
4.707998437E0,-1.210412607E-1,7.175900787E-2,-9.914944649E0
4.711998437E0,-1.228895858E-1,6.004657596E-2,-9.901766777E0
4.715998437E0,-1.082945317E-1,5.752787739E-2,-9.872327805E0
4.720000000E0,-1.236748844E-1,6.434656680E-2,-9.862597466E0
4.723998437E0,-9.055829048E-2,6.203855574E-2,-9.872673035E0
4.727998437E0,-1.107366160E-1,6.971915066E-2,-9.897448540E0
4.731998437E0,-1.121539846E-1,6.550535560E-2,-9.913537025E0
4.735998437E0,-1.276684105E-1,6.632896513E-2,-9.896623611E0
4.739998437E0,-1.354447752E-1,6.182786450E-2,-9.882048607E0
4.743998437E0,-1.374463290E-1,4.595909640E-2,-9.888187408E0
4.747998437E0,-1.240771115E-1,5.091030523E-2,-9.884432793E0
4.752000000E0,-1.015141532E-1,4.933971167E-2,-9.879826546E0
4.755998437E0,-1.102769300E-1,7.215166837E-2,-9.879319191E0
4.759998437E0,-1.213094071E-1,6.629065424E-2,-9.911124229E0
4.764000000E0,-1.180245653E-1,6.201940030E-2,-9.908824921E0
4.768000000E0,-1.081029996E-1,5.861005932E-2,-9.907484055E0
4.771998437E0,-1.186374798E-1,7.402871549E-2,-9.891634941E0
4.776001562E0,-1.205815747E-1,6.407841295E-2,-9.879184723E0
4.780000000E0,-1.262893528E-1,5.961562321E-2,-9.896566391E0
4.783998437E0,-1.131691262E-1,5.007712170E-2,-9.886223793E0
4.787998437E0,-1.260786653E-1,6.215347722E-2,-9.877163887E0
4.791998437E0,-1.273811013E-1,6.691315025E-2,-9.888972282E0
4.796000000E0,-1.095682457E-1,5.237555876E-2,-9.904687881E0
4.799998437E0,-1.127764732E-1,4.616020992E-2,-9.893684387E0
4.803998437E0,-1.274289936E-1,5.296931788E-2,-9.890150070E0
4.807998437E0,-1.199303493E-1,6.161717698E-2,-9.867951393E0
4.812000000E0,-1.064940915E-1,5.602432042E-2,-9.884912491E0
4.816000000E0,-1.298902333E-1,5.712565407E-2,-9.893224716E0
4.819998437E0,-1.220659763E-1,5.544013530E-2,-9.897821426E0
4.824000000E0,-1.242686436E-1,7.604942471E-2,-9.896815300E0
4.828000000E0,-1.162720099E-1,4.805641621E-2,-9.893568993E0
4.831998437E0,-1.276396811E-1,5.060384795E-2,-9.893396378E0
4.835998437E0,-1.180916056E-1,5.738422647E-2,-9.887353897E0
4.839998437E0,-1.240579560E-1,4.134307429E-2,-9.902830124E0
4.844000000E0,-1.060056761E-1,3.958094493E-2,-9.881923676E0
4.848000000E0,-9.768342227E-2,5.148491263E-2,-9.885964394E0
4.851998437E0,-1.110718101E-1,5.644569919E-2,-9.899765968E0
4.855998437E0,-1.251497120E-1,5.777687579E-2,-9.895293236E0
4.860000000E0,-1.279844493E-1,6.479667872E-2,-9.889498711E0
4.863998437E0,-1.245942563E-1,5.349604413E-2,-9.890303612E0
4.867998437E0,-1.231864616E-1,4.796064645E-2,-9.907119751E0
4.871998437E0,-9.921572357E-2,5.665638670E-2,-9.894354820E0
4.876006250E0,-1.189822480E-1,4.810430110E-2,-9.896998405E0
4.879998437E0,-1.096831635E-1,5.599559098E-2,-9.900809288E0
4.883998437E0,-1.167029664E-1,5.476018041E-2,-9.898434639E0
4.887998437E0,-1.246134117E-1,6.359957159E-2,-9.892007828E0
4.892000000E0,-1.269214153E-1,4.753926769E-2,-9.895044327E0
4.895998437E0,-1.251018345E-1,5.559336394E-2,-9.898050308E0
4.899998437E0,-1.341135949E-1,5.595728382E-2,-9.886683464E0
4.903998437E0,-1.261169612E-1,5.096776411E-2,-9.893166542E0
4.907998437E0,-1.123359427E-1,6.079356745E-2,-9.899967194E0
4.911998437E0,-1.148259118E-1,6.065949425E-2,-9.902667046E0
4.915998437E0,-1.127668992E-1,4.482903332E-2,-9.894163132E0
4.919998437E0,-1.222096309E-1,4.098873213E-2,-9.879558563E0
4.924000000E0,-1.269693077E-1,6.836882234E-2,-9.872424126E0
4.927998437E0,-1.136192307E-1,4.659116268E-2,-9.876455307E0
4.931998437E0,-1.182639822E-1,4.367023706E-2,-9.883503914E0
4.936000000E0,-1.194994003E-1,5.671384931E-2,-9.895848274E0
4.940000000E0,-1.225065142E-1,7.664319128E-2,-9.911162376E0
4.943998437E0,-1.121731400E-1,5.824613944E-2,-9.895675659E0
4.947998437E0,-1.189247891E-1,5.542098358E-2,-9.886003494E0
4.952000000E0,-1.212902591E-1,6.111918390E-2,-9.882411957E0
4.955998437E0,-1.154005229E-1,5.779602751E-2,-9.881665230E0
4.959998437E0,-1.185321361E-1,5.620627850E-2,-9.886952400E0
4.963998437E0,-1.159942821E-1,4.736688733E-2,-9.895876884E0
4.968000000E0,-1.158697903E-1,6.740156561E-2,-9.902197838E0
4.971998437E0,-1.154675633E-1,7.257304341E-2,-9.892170906E0
4.976004687E0,-1.317577064E-1,6.829220802E-2,-9.877355576E0
4.979998437E0,-1.310873330E-1,5.214571208E-2,-9.882536888E0
4.984000000E0,-1.305510253E-1,4.861186817E-2,-9.895474434E0
4.987998437E0,-1.265670806E-1,6.753564626E-2,-9.890782356E0
4.991998437E0,-1.204762235E-1,6.995857507E-2,-9.887372971E0
4.995998437E0,-1.184172109E-1,5.470272154E-2,-9.903816223E0
5.000000000E0,-1.178234592E-1,4.377558455E-2,-9.888263702E0
5.004000000E0,-1.235120744E-1,5.589982122E-2,-9.898108482E0
5.007998437E0,-1.086488739E-1,4.748180881E-2,-9.899554253E0
5.011998437E0,-1.143183410E-1,5.824613944E-2,-9.884806633E0
5.016000000E0,-1.136096567E-1,6.793786585E-2,-9.887133598E0
5.019998437E0,-1.195951626E-1,5.845683068E-2,-9.875085831E0
5.023998437E0,-1.158314794E-1,6.948930770E-2,-9.890954971E0
5.027998437E0,-1.113016531E-1,7.018841803E-2,-9.889479637E0
5.032000000E0,-1.221330166E-1,5.372588709E-2,-9.898482323E0
5.035998437E0,-1.088021025E-1,5.907932296E-2,-9.880563736E0
5.039998437E0,-1.227746680E-1,6.621403992E-2,-9.894009590E0
5.043998437E0,-1.215488315E-1,6.407841295E-2,-9.884087563E0
5.048000000E0,-1.128818244E-1,5.492299050E-2,-9.891040802E0
5.051998437E0,-1.080551147E-1,3.696647286E-2,-9.903375626E0
5.055998437E0,-1.246325597E-1,5.064215511E-2,-9.894594193E0
5.059998437E0,-1.258583963E-1,5.882074684E-2,-9.887363434E0
5.064000000E0,-1.303116083E-1,5.211698264E-2,-9.897179604E0
5.067998437E0,-1.259158552E-1,6.564901024E-2,-9.899967194E0
5.071998437E0,-1.249294430E-1,6.455725431E-2,-9.897745132E0
5.075998437E0,-1.145481840E-1,5.209782720E-2,-9.886875153E0
5.080000000E0,-1.197866946E-1,4.705084860E-2,-9.878907204E0
5.083998437E0,-1.115027592E-1,5.424303561E-2,-9.884922028E0
5.087998437E0,-1.046649218E-1,6.336015463E-2,-9.899391174E0
5.091998437E0,-1.111388430E-1,6.996814907E-2,-9.895282745E0
5.096000000E0,-1.170668900E-1,6.013277173E-2,-9.894968033E0
5.099998437E0,-1.013896540E-1,4.786488041E-2,-9.891682625E0
5.103998437E0,-1.157261357E-1,5.179136992E-2,-9.893712997E0
5.108000000E0,-1.157740206E-1,7.001603395E-2,-9.881320000E0
5.112000000E0,-1.066377386E-1,5.645527691E-2,-9.882909775E0
5.115998437E0,-1.159368232E-1,5.771941319E-2,-9.895494461E0
5.119998437E0,-1.193653196E-1,6.304412335E-2,-9.899880409E0
5.124000000E0,-1.177947223E-1,5.186798424E-2,-9.890284538E0
5.128000000E0,-1.215967163E-1,5.822698772E-2,-9.875363350E0
5.131998437E0,-1.137533113E-1,4.268382490E-2,-9.851536751E0
5.135998437E0,-1.136862710E-1,4.153461009E-2,-9.901268959E0
5.140000000E0,-9.413043410E-2,6.472006440E-2,-9.917406082E0
5.144000000E0,-1.287122816E-1,6.553408504E-2,-9.894909859E0
5.147998437E0,-1.189056337E-1,5.091987923E-2,-9.865729332E0
5.151998437E0,-1.038413197E-1,5.154237524E-2,-9.905138016E0
5.156000000E0,-1.096735895E-1,4.587290436E-2,-9.915643692E0
5.159998437E0,-1.123359427E-1,5.777687579E-2,-9.850330353E0
5.163998437E0,-1.341710687E-1,6.741113961E-2,-9.851058006E0
5.167998437E0,-1.070208102E-1,5.730761215E-2,-9.900905609E0
5.172000000E0,-9.917741269E-2,4.933971167E-2,-9.934759140E0
5.176000000E0,-1.334049255E-1,6.563943624E-2,-9.904535294E0
5.179998437E0,-1.348701566E-1,7.799351215E-2,-9.877135277E0
5.183998437E0,-1.273906827E-1,6.449022144E-2,-9.881923676E0
5.188000000E0,-1.115314960E-1,4.080677405E-2,-9.913001060E0
5.191998437E0,-9.430281818E-2,3.899675608E-2,-9.889939308E0
5.196000000E0,-1.147301495E-1,6.914454699E-2,-9.843520164E0
5.199998437E0,-1.180820316E-1,5.614881963E-2,-9.880467415E0
5.204000000E0,-1.008054689E-1,6.553408504E-2,-9.899334908E0
5.207998437E0,-1.267298758E-1,6.434656680E-2,-9.893491745E0
5.211998437E0,-1.193461716E-1,4.960786179E-2,-9.892736435E0
5.215998437E0,-1.057183668E-1,7.597281039E-2,-9.917721748E0
5.220000000E0,-1.275151819E-1,8.214027435E-2,-9.919244766E0
5.223998437E0,-1.353011280E-1,5.090072751E-2,-9.880544662E0
5.227998437E0,-1.050479934E-1,6.223009154E-2,-9.884241104E0
5.231998437E0,-1.103248149E-1,6.943184882E-2,-9.895149231E0
5.236000000E0,-1.200548485E-1,5.118803307E-2,-9.840465546E0
5.239998437E0,-1.253603995E-1,6.551493704E-2,-9.831884384E0
5.243998437E0,-1.197771206E-1,6.009446457E-2,-9.903433800E0
5.247998437E0,-1.168849245E-1,5.046977103E-2,-9.949363708E0
5.252000000E0,-1.315757483E-1,7.960242033E-2,-9.915987968E0
5.255998437E0,-1.415260434E-1,9.018479288E-2,-9.880200386E0
5.259998437E0,-1.136479676E-1,6.366661191E-2,-9.874665260E0
5.264000000E0,-1.079497710E-1,4.832456633E-2,-9.910319328E0
5.268000000E0,-1.219031736E-1,3.439031169E-2,-9.883111000E0
5.271998437E0,-1.012843102E-1,3.713885322E-2,-9.831157684E0
5.276004687E0,-1.158410534E-1,5.117845535E-2,-9.872969627E0
5.280000000E0,-1.122497544E-1,4.430230707E-2,-9.946691513E0
5.284000000E0,-1.059673727E-1,4.973235726E-2,-9.926906586E0
5.287998437E0,-1.354926676E-1,7.711245120E-2,-9.875459671E0
5.291998437E0,-1.300817728E-1,6.681738049E-2,-9.850885391E0
5.296000000E0,-1.189056337E-1,3.620990738E-2,-9.871609688E0
5.299998437E0,-1.274289936E-1,3.048297763E-2,-9.883752823E0
5.303998437E0,-1.261169612E-1,4.927267134E-2,-9.858891487E0
5.307998437E0,-1.225927025E-1,4.672523960E-2,-9.900032997E0
5.312000000E0,-1.147301495E-1,6.582139432E-2,-9.940399170E0
5.315998437E0,-1.083136797E-1,6.433699280E-2,-9.921676636E0
5.319998437E0,-1.185608655E-1,5.633077770E-2,-9.897400856E0
5.323998437E0,-1.027304083E-1,6.331226975E-2,-9.866936684E0
5.328000000E0,-1.021653712E-1,5.481764302E-2,-9.862932205E0
5.331998437E0,-1.115506440E-1,4.451299831E-2,-9.874262810E0
5.335998437E0,-1.168657765E-1,3.857537732E-2,-9.902102470E0
5.339998437E0,-1.309149414E-1,6.273765862E-2,-9.897457123E0
5.344000000E0,-1.308383346E-1,7.577169687E-2,-9.903194427E0
5.347998437E0,-1.197675467E-1,5.182967708E-2,-9.913489342E0
5.351998437E0,-1.086967513E-1,5.143703148E-2,-9.888580322E0
5.355998437E0,-1.201697662E-1,6.867528707E-2,-9.867194176E0
5.360000000E0,-1.126136705E-1,7.589619607E-2,-9.855185509E0
5.363998437E0,-1.152855977E-1,5.184883252E-2,-9.873792648E0
5.367998437E0,-1.109760329E-1,5.293101072E-2,-9.899745941E0
5.371998437E0,-1.218169853E-1,5.168602616E-2,-9.907302856E0
5.376003125E0,-1.401757151E-1,5.962519720E-2,-9.904745102E0
5.379998437E0,-1.299093813E-1,6.221093610E-2,-9.888474464E0
5.383998437E0,-1.261744350E-1,5.363012105E-2,-9.896815300E0
5.387998437E0,-1.117230281E-1,5.621585622E-2,-9.886137962E0
5.392000000E0,-1.139831543E-1,5.104437843E-2,-9.872117043E0
5.395998437E0,-1.021270677E-1,5.390784517E-2,-9.868305206E0
5.399998437E0,-9.895714372E-2,3.772304207E-2,-9.892955780E0
5.403998437E0,-1.032571346E-1,5.749914795E-2,-9.905884743E0
5.408000000E0,-9.876561165E-2,5.511452630E-2,-9.902370453E0
5.411998437E0,-9.974244237E-2,6.035303324E-2,-9.886875153E0
5.415998437E0,-1.251305491E-1,6.400179863E-2,-9.882230759E0
5.419998437E0,-1.235886887E-1,6.857950985E-2,-9.891309738E0
5.424000000E0,-1.198728979E-1,5.444414541E-2,-9.877393723E0
5.427998437E0,-1.259254366E-1,5.380250141E-2,-9.865442276E0
5.431998437E0,-1.246804520E-1,4.329674691E-2,-9.898070335E0
5.436000000E0,-1.146056429E-1,4.943547770E-2,-9.910367012E0
5.440000000E0,-1.219127476E-1,4.572925344E-2,-9.879961014E0
5.443998437E0,-1.096831635E-1,5.865794048E-2,-9.856784821E0
5.447998437E0,-1.029985547E-1,6.609912217E-2,-9.812827110E0
5.452000000E0,-1.298231930E-1,4.497268423E-2,-9.785792351E0
5.456000000E0,-1.314512491E-1,6.847416982E-3,-9.940361023E0
5.459998437E0,-7.557057589E-2,7.598238438E-2,-1.006133556E1
5.463998437E0,-1.357895434E-1,1.162049696E-1,-1.003840923E1
5.468000000E0,-2.097799480E-1,9.784623981E-2,-9.911314964E0
5.471998437E0,-9.862195700E-2,5.405149981E-2,-9.893023491E0
5.475998437E0,-6.815813482E-2,2.912306972E-2,-9.944240570E0
5.479998437E0,-1.072027758E-1,2.353021502E-2,-9.727995872E0
5.484000000E0,-1.267586201E-1,7.481402159E-2,-9.571998596E0
5.487998437E0,-1.015428826E-1,3.625778854E-2,-9.828303337E0
5.491998437E0,-6.113833562E-2,1.747767255E-2,-1.013211823E1
5.495998437E0,-1.461708099E-1,8.558791876E-2,-1.008853436E1
5.500000000E0,-2.158037722E-1,1.659756303E-1,-9.893003464E0
5.503998437E0,-1.441979855E-1,1.131882817E-1,-9.857417107E0
5.507998437E0,-8.544426411E-2,8.695740253E-3,-9.936865807E0
5.511998437E0,-1.081891879E-1,-1.674025878E-2,-9.807128906E0
5.516000000E0,-1.201985031E-1,3.349009156E-2,-9.613045692E0
5.519998437E0,-1.231673136E-1,6.140648574E-2,-9.777450562E0
5.523998437E0,-8.435251564E-2,2.557007410E-2,-1.006964874E1
5.527998437E0,-9.895714372E-2,5.954858288E-2,-1.012915897E1
5.532000000E0,-1.808962971E-1,1.402906477E-1,-9.988762856E0
5.535998437E0,-1.576533914E-1,1.379155815E-1,-9.826397896E0
5.539998437E0,-9.561483562E-2,3.769431263E-2,-9.833637238E0
5.543998437E0,-9.503065795E-2,-3.041593917E-2,-9.821216583E0
5.548000000E0,-1.192025170E-1,6.876147352E-3,-9.750137329E0
5.551998437E0,-1.269597262E-1,5.361096561E-2,-9.837057114E0
5.555998437E0,-9.147766232E-2,5.944324285E-2,-1.001067448E1
5.559998437E0,-1.032283977E-1,6.938396394E-2,-1.007614136E1
5.563998437E0,-1.520222276E-1,9.513600171E-2,-1.000031281E1
5.567998437E0,-1.379826367E-1,1.318055838E-1,-9.842744827E0
5.571998437E0,-1.037838534E-1,8.218815923E-2,-9.759886742E0
5.575998437E0,-1.101620123E-1,1.484405017E-3,-9.778063774E0
5.580000000E0,-1.323706210E-1,2.317587147E-3,-9.841270447E0
5.583998437E0,-1.329739690E-1,3.511814773E-2,-9.921993256E0
5.587998437E0,-1.220276728E-1,8.322244883E-2,-9.985036850E0
5.591998437E0,-1.315566003E-1,5.915593728E-2,-1.000751400E1
5.595998437E0,-1.189822480E-1,4.417781159E-2,-9.978525162E0
5.599998437E0,-1.145673394E-1,7.267838717E-2,-9.898041725E0
5.603998437E0,-9.543287754E-2,9.029013664E-2,-9.763602257E0
5.608000000E0,-9.274179488E-2,4.818091542E-2,-9.748643875E0
5.611998437E0,-1.036114767E-1,1.151132211E-2,-9.844803810E0
5.615998437E0,-1.247379109E-1,1.724782959E-2,-9.958079338E0
5.619998437E0,-1.234929189E-1,8.625829965E-2,-9.948721886E0
5.624000000E0,-1.457972974E-1,7.950665057E-2,-9.923228264E0
5.627998437E0,-1.301583797E-1,3.904464096E-2,-9.937115669E0
5.631998437E0,-1.058620214E-1,5.191586912E-2,-9.909179688E0
5.635998437E0,-9.983821213E-2,8.190084994E-2,-9.827527046E0
5.640000000E0,-1.023952216E-1,8.320330083E-2,-9.780332565E0
5.643998437E0,-1.064557880E-1,3.572148830E-2,-9.855004311E0
5.647998437E0,-1.041286215E-1,2.482308447E-2,-9.970231056E0
5.651998437E0,-1.289612800E-1,4.906198010E-2,-9.963020325E0
5.656000000E0,-1.425603479E-1,7.679641992E-2,-9.893808365E0
5.659998437E0,-1.463144571E-1,8.006210625E-2,-9.884930611E0
5.663998437E0,-1.151227951E-1,6.426995248E-2,-9.885103226E0
5.667998437E0,-1.066281646E-1,7.973649353E-2,-9.867252350E0
5.672000000E0,-1.286356598E-1,8.508035541E-2,-9.830430031E0
5.675998437E0,-1.219414845E-1,6.367618591E-2,-9.855932236E0
5.679998437E0,-1.131499708E-1,4.273171350E-2,-9.926791191E0
5.683998437E0,-1.107749268E-1,2.983175218E-2,-9.943838120E0
5.688000000E0,-1.117900610E-1,4.707958177E-2,-9.886281013E0
5.691998437E0,-1.065994352E-1,6.454767287E-2,-9.846096992E0
5.695998437E0,-1.211657599E-1,6.850289553E-2,-9.873410225E0
5.699998437E0,-1.076050028E-1,7.544608414E-2,-9.884451866E0
5.704000000E0,-1.140406206E-1,7.838616520E-2,-9.892449379E0
5.707998437E0,-1.331367642E-1,7.698795199E-2,-9.899929047E0
5.711998437E0,-1.509591937E-1,3.498407453E-2,-9.913249969E0
5.715998437E0,-1.453376114E-1,2.172019705E-2,-9.910941124E0
5.720000000E0,-1.392180324E-1,3.233129904E-2,-9.897323608E0
5.723998437E0,-1.267777681E-1,6.087018549E-2,-9.845790863E0
5.727998437E0,-1.007958874E-1,7.781155407E-2,-9.850387573E0
5.731998437E0,-8.229350299E-2,7.022672147E-2,-9.891405106E0
5.735998437E0,-9.656294435E-2,6.543832272E-2,-9.900971413E0
5.739998437E0,-1.178809106E-1,7.896076888E-2,-9.910951614E0
5.744000000E0,-1.242399141E-1,4.933971167E-2,-9.890850067E0
5.747998437E0,-1.298136115E-1,4.213795066E-2,-9.898147583E0
5.751998437E0,-1.243739948E-1,1.746809669E-2,-9.898827553E0
5.755998437E0,-1.112441868E-1,5.100607127E-2,-9.882201195E0
5.759998437E0,-1.147109941E-1,5.605304986E-2,-9.858192444E0
5.764000000E0,-1.019738391E-1,5.713523179E-2,-9.875038147E0
5.767998437E0,-1.008725017E-1,7.241981477E-2,-9.897457123E0
5.771998437E0,-1.170190051E-1,6.214389950E-2,-9.909926414E0
5.775998437E0,-1.195855886E-1,5.956773832E-2,-9.881790161E0
5.780000000E0,-1.332804263E-1,3.856579959E-2,-9.867060661E0
5.783998437E0,-1.322078258E-1,4.616020992E-2,-9.877010345E0
5.787998437E0,-1.312884390E-1,4.421611875E-2,-9.883465767E0
5.791998437E0,-1.100087836E-1,6.450936943E-2,-9.887257576E0
5.796000000E0,-1.192120910E-1,6.578309089E-2,-9.894651413E0
5.800000000E0,-1.124604419E-1,5.121676251E-2,-9.912828445E0
5.803998437E0,-1.120390594E-1,5.695326999E-2,-9.918938637E0
5.807998437E0,-1.182544082E-1,6.179913506E-2,-9.893186569E0
5.812000000E0,-1.307234168E-1,5.381207541E-2,-9.875900269E0
5.815998437E0,-1.150557548E-1,6.020938605E-2,-9.875699043E0
5.819998437E0,-1.246229857E-1,5.370673537E-2,-9.871513367E0
5.823998437E0,-1.228895858E-1,5.848555639E-2,-9.887181282E0
5.828000000E0,-1.226022765E-1,6.212474406E-2,-9.895274162E0
5.831998437E0,-1.228704304E-1,6.643430889E-2,-9.913469315E0
5.835998437E0,-1.253891289E-1,4.818091542E-2,-9.908739090E0
5.839998437E0,-1.164443940E-1,5.408980697E-2,-9.885342598E0
5.844000000E0,-1.227746680E-1,5.215528980E-2,-9.874884605E0
5.847998437E0,-1.121252552E-1,5.642654374E-2,-9.881224632E0
5.851998437E0,-1.198250055E-1,7.057148963E-2,-9.872643471E0
5.855998437E0,-1.194802374E-1,5.094861239E-2,-9.886731148E0
5.860000000E0,-1.129297018E-1,6.002742425E-2,-9.893262863E0
5.863998437E0,-1.321695149E-1,6.115749106E-2,-9.878648758E0
5.867998437E0,-1.287888885E-1,3.710054606E-2,-9.905713081E0
5.871998437E0,-1.139544249E-1,4.664862528E-2,-9.912923813E0
5.876000000E0,-1.303499192E-1,4.174530134E-2,-9.880218506E0
5.879998437E0,-1.200069636E-1,6.132029369E-2,-9.864876747E0
5.883998437E0,-1.003266275E-1,5.872498080E-2,-9.891280174E0
5.887998437E0,-9.748231620E-2,4.927267134E-2,-9.891175270E0
5.892000000E0,-1.183501780E-1,5.316085368E-2,-9.859705925E0
5.895998437E0,-1.223628595E-1,7.028418779E-2,-9.878495216E0
5.899998437E0,-1.215871349E-1,5.747999623E-2,-9.897562027E0
5.903998437E0,-1.295454651E-1,5.241386592E-2,-9.908699989E0
5.908000000E0,-1.389786154E-1,5.242343992E-2,-9.872117043E0
5.911998437E0,-1.192887053E-1,5.698200315E-2,-9.867366791E0
5.915998437E0,-1.083328426E-1,5.581362918E-2,-9.870997429E0
5.919998437E0,-9.889010340E-2,3.134488687E-2,-9.887718201E0
5.924000000E0,-1.021270677E-1,5.023992807E-2,-9.877547264E0
5.927998437E0,-1.049617976E-1,5.502833053E-2,-9.881109238E0
5.931998437E0,-1.163773611E-1,6.442318112E-2,-9.908097267E0
5.936000000E0,-1.240675375E-1,6.173209846E-2,-9.912627220E0
5.940000000E0,-1.067239344E-1,6.331226975E-2,-9.893052101E0
5.943998437E0,-1.078348458E-1,7.248684764E-2,-9.870690346E0
5.947998437E0,-1.171722338E-1,7.456501573E-2,-9.873151779E0
5.952000000E0,-1.119528711E-1,4.697423428E-2,-9.887583733E0
5.956000000E0,-1.244506091E-1,3.873818368E-2,-9.884614944E0
5.959998437E0,-1.238664165E-1,6.323565543E-2,-9.875028610E0
5.963998437E0,-1.087542176E-1,7.141424716E-2,-9.886022568E0
5.968000000E0,-1.082179174E-1,6.888597459E-2,-9.894660950E0
5.971998437E0,-1.233492717E-1,6.965211779E-2,-9.882009506E0
5.976000000E0,-1.128147840E-1,5.951027572E-2,-9.867290497E0
5.979998437E0,-1.181873679E-1,5.413768813E-2,-9.862579346E0
5.984000000E0,-1.095203608E-1,4.409161583E-2,-9.864101410E0
5.987998437E0,-1.153047532E-1,3.881479800E-2,-9.892075539E0
5.991998437E0,-1.170668900E-1,6.426037848E-2,-9.903223038E0
5.995998437E0,-1.208018437E-1,7.911399752E-2,-9.914255142E0
6.000000000E0,-1.204762235E-1,7.187393308E-2,-9.912953377E0
6.003998437E0,-1.146631092E-1,5.634992942E-2,-9.919934273E0
6.007998437E0,-1.327153891E-1,6.672161072E-2,-9.899870872E0
6.011998437E0,-1.170956194E-1,7.098329067E-2,-9.874128342E0
6.016000000E0,-1.122880653E-1,5.521029234E-2,-9.853796959E0
6.019998437E0,-1.106695756E-1,4.255932942E-2,-9.862856865E0
6.024000000E0,-1.185896024E-1,5.106353387E-2,-9.884691238E0
6.027998437E0,-1.221904755E-1,6.229712814E-2,-9.897610664E0
6.032000000E0,-1.292294264E-1,5.579447374E-2,-9.908442497E0
6.035998437E0,-1.245846823E-1,7.064810395E-2,-9.923343658E0
6.039998437E0,-1.197866946E-1,6.084145233E-2,-9.890915871E0
6.043998437E0,-1.168274656E-1,5.784391239E-2,-9.868028641E0
6.048000000E0,-1.155824810E-1,4.679227993E-2,-9.866102219E0
6.051998437E0,-1.076528877E-1,3.905421868E-2,-9.860587120E0
6.056000000E0,-1.026825234E-1,5.194459856E-2,-9.889584541E0
6.059998437E0,-1.177181080E-1,5.680004135E-2,-9.905588150E0
6.064000000E0,-1.086584479E-1,5.465483293E-2,-9.907379150E0
6.068000000E0,-1.148737967E-1,5.874413252E-2,-9.912799835E0
6.071998437E0,-1.400129050E-1,7.189308852E-2,-9.897514343E0
6.075998437E0,-1.155250147E-1,7.868304104E-2,-9.868574142E0
6.080000000E0,-1.145864949E-1,5.308423936E-2,-9.857588768E0
6.084000000E0,-1.235599592E-1,3.385401145E-2,-9.862330437E0
6.087998437E0,-1.251018345E-1,5.801629648E-2,-9.898165703E0
6.091998437E0,-1.264138520E-1,5.926128104E-2,-9.915232658E0
6.096000000E0,-1.173829213E-1,4.780741781E-2,-9.910855293E0
6.099998437E0,-1.146631092E-1,5.962519720E-2,-9.904573441E0
6.103998437E0,-1.100949720E-1,6.182786450E-2,-9.879070282E0
6.108000000E0,-1.050192639E-1,5.315127969E-2,-9.868688583E0
6.112000000E0,-9.705135971E-2,6.720045209E-2,-9.857789993E0
6.115998437E0,-1.164635494E-1,6.298665702E-2,-9.884442329E0
6.119998437E0,-1.172009557E-1,5.960604548E-2,-9.907255173E0
6.124000000E0,-1.284632832E-1,5.861005932E-2,-9.916629791E0
6.127998437E0,-1.128435135E-1,5.215528980E-2,-9.911688805E0
6.131998437E0,-1.251688600E-1,5.413768813E-2,-9.895695686E0
6.135998437E0,-1.175744534E-1,5.458780006E-2,-9.886837006E0
6.140000000E0,-1.125849411E-1,5.427176133E-2,-9.876369476E0
6.144000000E0,-1.080168039E-1,6.195236370E-2,-9.874665260E0
6.147998437E0,-1.213285699E-1,5.754703283E-2,-9.874310493E0
6.151998437E0,-1.151132211E-1,4.732858017E-2,-9.890638351E0
6.156000000E0,-1.311160624E-1,4.883213714E-2,-9.901441574E0
6.159998437E0,-1.246708706E-1,5.499002337E-2,-9.901882172E0
6.163998437E0,-1.264042705E-1,6.239289418E-2,-9.888292313E0
6.167998437E0,-1.169423908E-1,6.646303833E-2,-9.884288788E0
6.172000000E0,-1.170860380E-1,6.502652168E-2,-9.881109238E0
6.176000000E0,-1.123646796E-1,6.334099919E-2,-9.878753662E0
6.179998437E0,-1.259733140E-1,5.351519957E-2,-9.891184807E0
6.183998437E0,-1.139256954E-1,5.765237659E-2,-9.885342598E0
6.188000000E0,-1.096257120E-1,4.969405010E-2,-9.887564659E0
6.191998437E0,-1.065228209E-1,5.354392529E-2,-9.874769211E0
6.195998437E0,-1.058045551E-1,4.784572497E-2,-9.886837006E0
6.199998437E0,-1.116272584E-1,4.350743443E-2,-9.891960144E0
6.204000000E0,-1.188385934E-1,6.402094662E-2,-9.892017365E0
6.207998437E0,-1.127477512E-1,5.839936808E-2,-9.897697449E0
6.211998437E0,-1.049043462E-1,5.416642129E-2,-9.896719933E0
6.215998437E0,-1.265191883E-1,5.370673537E-2,-9.903644562E0
6.220000000E0,-1.212136447E-1,4.877467826E-2,-9.889134407E0
6.223998437E0,-1.157548651E-1,3.590345010E-2,-9.893617630E0
6.228000000E0,-1.193174347E-1,4.978024215E-2,-9.880401611E0
6.231998437E0,-1.138969660E-1,5.832275376E-2,-9.877862930E0
6.236000000E0,-1.206773445E-1,6.289089471E-2,-9.874875069E0
6.239998437E0,-1.030272916E-1,6.796659529E-2,-9.888320923E0
6.243998437E0,-1.161953956E-1,6.165548414E-2,-9.895723343E0
6.247998437E0,-1.190109774E-1,6.136817858E-2,-9.887545586E0
6.251998437E0,-1.192216650E-1,5.189671740E-2,-9.880018234E0
6.256001562E0,-1.139640063E-1,4.867890850E-2,-9.885046005E0
6.259998437E0,-1.167508513E-1,5.481764302E-2,-9.898147583E0
6.263998437E0,-1.137724668E-1,6.468175352E-2,-9.890102386E0
6.267998437E0,-1.227076277E-1,7.224743068E-2,-9.885869026E0
6.271998437E0,-1.282047182E-1,6.313988566E-2,-9.876024246E0
6.275998437E0,-1.291336715E-1,4.341166839E-2,-9.869071960E0
6.280000000E0,-1.305127293E-1,4.655285552E-2,-9.886645317E0
6.283998437E0,-1.183310226E-1,6.896258891E-2,-9.939786911E0
6.287998437E0,-1.140118837E-1,8.040686697E-2,-9.942018509E0
6.291998437E0,-1.154100969E-1,7.452671230E-2,-9.937191010E0
6.296000000E0,-1.244122982E-1,7.671021670E-2,-9.892611504E0
6.300000000E0,-9.500192106E-2,5.458780006E-2,-9.853375435E0
6.303998437E0,-1.067239344E-1,3.258987516E-2,-9.810538292E0
6.307998437E0,-1.113208011E-1,3.601837158E-2,-9.804572105E0
6.312000000E0,-1.251114011E-1,3.433285281E-2,-9.868076324E0
6.315998437E0,-1.236365736E-1,4.786488041E-2,-9.937919617E0
6.319998437E0,-1.193365827E-1,6.837840378E-2,-9.980258942E0
6.324000000E0,-1.358661652E-1,7.955453545E-2,-9.954199791E0
6.328000000E0,-1.245272234E-1,8.141243458E-2,-9.901383400E0
6.331998437E0,-1.127764732E-1,5.685750023E-2,-9.838521957E0
6.335998437E0,-9.030928463E-2,2.610637434E-2,-9.798232079E0
6.339998437E0,-9.583510458E-2,2.161485329E-2,-9.822231293E0
6.344000000E0,-1.297370046E-1,2.528277040E-2,-9.875718117E0
6.348000000E0,-1.193653196E-1,5.690538883E-2,-9.943655968E0
6.352000000E0,-1.200740039E-1,8.079952002E-2,-9.976226807E0
6.355998437E0,-1.328015774E-1,8.357679099E-2,-9.934854507E0
6.360000000E0,-1.342285275E-1,7.864473760E-2,-9.868985176E0
6.363998437E0,-1.174595356E-1,5.050807819E-2,-9.839182854E0
6.367998437E0,-1.136671230E-1,3.032016940E-2,-9.821025848E0
6.371998437E0,-1.166742370E-1,2.571372688E-2,-9.864829063E0
6.376000000E0,-1.054597944E-1,6.127241254E-2,-9.919742584E0
6.379998437E0,-9.361328930E-2,6.394433975E-2,-9.962321281E0
6.384000000E0,-1.170381531E-1,7.652826607E-2,-9.954113960E0
6.387998437E0,-1.233205423E-1,8.804916590E-2,-9.911343575E0
6.392000000E0,-1.167604327E-1,8.424717188E-2,-9.864197731E0
6.395998437E0,-1.028261706E-1,5.921339616E-2,-9.817012787E0
6.399998437E0,-1.111484244E-1,4.486734048E-2,-9.826090813E0
6.403998437E0,-1.201410443E-1,2.950614132E-2,-9.892209053E0
6.408000000E0,-1.297848821E-1,4.428315535E-2,-9.914734840E0
6.411998437E0,-1.178042963E-1,6.418376416E-2,-9.934328079E0
6.415998437E0,-1.355788559E-1,6.511271000E-2,-9.934126854E0
6.419998437E0,-1.274673045E-1,7.903738320E-2,-9.893789291E0
6.424000000E0,-1.059961021E-1,6.628108025E-2,-9.846737862E0
6.427998437E0,-1.030751690E-1,7.101202756E-2,-9.824347496E0
6.431998437E0,-1.001159400E-1,5.808333308E-2,-9.840503693E0
6.436000000E0,-1.273906827E-1,5.252878740E-2,-9.885103226E0
6.440000000E0,-1.310873330E-1,5.958689004E-2,-9.932891846E0
6.443998437E0,-1.211274490E-1,5.885905400E-2,-9.936166763E0
6.447998437E0,-1.308479160E-1,7.264965773E-2,-9.922088623E0
6.452000000E0,-1.304456741E-1,5.128380284E-2,-9.896548271E0
6.455998437E0,-1.141076535E-1,5.316085368E-2,-9.877901077E0
6.459998437E0,-1.100853980E-1,6.305369735E-2,-9.851680756E0
6.463998437E0,-1.212519556E-1,5.266286060E-2,-9.867913246E0
6.468000000E0,-1.196143180E-1,6.041049585E-2,-9.886405945E0
6.471998437E0,-1.165018529E-1,5.120718852E-2,-9.928458214E0
6.475998437E0,-1.193174347E-1,5.682877079E-2,-9.922961235E0
6.479998437E0,-1.279557198E-1,5.240428448E-2,-9.897265434E0
6.484000000E0,-1.201123148E-1,6.057330221E-2,-9.863277435E0
6.487998437E0,-1.094629019E-1,6.392518431E-2,-9.871896744E0
6.491998437E0,-1.145194545E-1,5.863878503E-2,-9.884673119E0
6.495998437E0,-1.161379367E-1,7.285077125E-2,-9.888666153E0
6.500000000E0,-1.177468449E-1,5.450160429E-2,-9.894019127E0
6.504000000E0,-1.292198449E-1,4.510675743E-2,-9.908518791E0
6.507998437E0,-1.231002733E-1,4.536533356E-2,-9.896595955E0
6.511998437E0,-1.138873920E-1,4.894705862E-2,-9.878705978E0
6.516000000E0,-1.104301587E-1,6.229712814E-2,-9.871417999E0
6.520000000E0,-1.275343448E-1,6.200024858E-2,-9.859542847E0
6.523998437E0,-1.249869093E-1,6.009446457E-2,-9.884126663E0
6.527998437E0,-1.165784672E-1,6.250781566E-2,-9.888349533E0
6.532000000E0,-1.271608472E-1,6.053499505E-2,-9.899688721E0
6.535998437E0,-1.368717253E-1,5.436753109E-2,-9.907474518E0
6.539998437E0,-1.273427904E-1,5.353435129E-2,-9.890552521E0
6.543998437E0,-1.149025261E-1,5.741295591E-2,-9.876502991E0
6.547998437E0,-1.019738391E-1,5.666596442E-2,-9.861037254E0
6.551998437E0,-9.978074580E-2,5.296931788E-2,-9.869281769E0
6.555998437E0,-1.113303751E-1,6.556282192E-2,-9.910079956E0
6.559998437E0,-1.176510677E-1,7.029376179E-2,-9.927404404E0
6.564000000E0,-1.270171851E-1,5.820783228E-2,-9.928859711E0
6.567998437E0,-1.421772838E-1,5.658935010E-2,-9.921935081E0
6.571998437E0,-1.365461051E-1,4.322970659E-2,-9.898970604E0
6.575998437E0,-1.364407688E-1,3.942771628E-2,-9.874396324E0
6.579998437E0,-1.213572919E-1,2.149035409E-2,-9.863583565E0
6.583998437E0,-1.189631000E-1,3.110546805E-2,-9.851709366E0
6.587998437E0,-1.251592934E-1,5.508579314E-2,-9.864849091E0
6.591998437E0,-1.193844751E-1,6.779421121E-2,-9.910739899E0
6.595998437E0,-1.318534762E-1,6.782294810E-2,-9.920078278E0
6.599998437E0,-1.353011280E-1,5.714480579E-2,-9.910271645E0
6.603998437E0,-1.331654936E-1,6.487329304E-2,-9.890715599E0
6.608000000E0,-1.135426164E-1,5.725015327E-2,-9.857646942E0
6.611998437E0,-1.099992096E-1,4.390966147E-2,-9.849755287E0
6.615998437E0,-1.084764972E-1,2.851015516E-2,-9.852053642E0
6.619998437E0,-1.128818244E-1,4.220498726E-2,-9.876532555E0
6.624000000E0,-1.158027500E-1,5.189671740E-2,-9.903644562E0
6.627998437E0,-1.245272234E-1,7.019799203E-2,-9.929472923E0
6.631998437E0,-1.373026669E-1,7.913315296E-2,-9.914714813E0
6.635998437E0,-1.222096309E-1,6.540001929E-2,-9.894890785E0
6.640000000E0,-1.303116083E-1,5.875370651E-2,-9.860252380E0
6.644000000E0,-1.228800043E-1,4.338293523E-2,-9.847476959E0
6.647998437E0,-1.117613390E-1,4.861186817E-2,-9.868745804E0
6.651998437E0,-1.030464396E-1,5.051765591E-2,-9.886606216E0
6.656000000E0,-1.187236682E-1,5.184883252E-2,-9.910099030E0
6.659998437E0,-1.150557548E-1,5.004839227E-2,-9.916783333E0
6.663998437E0,-1.203613058E-1,5.829402059E-2,-9.890351295E0
6.667998437E0,-1.187619790E-1,5.450160429E-2,-9.881405830E0
6.672000000E0,-1.178521886E-1,5.912720412E-2,-9.857311249E0
6.676000000E0,-1.133606657E-1,6.407841295E-2,-9.865700722E0
6.679998437E0,-1.184076369E-1,4.973235726E-2,-9.880305290E0
6.683998437E0,-1.225352436E-1,5.273947492E-2,-9.898156166E0
6.688000000E0,-1.292773187E-1,5.318958685E-2,-9.922443390E0
6.691998437E0,-1.307712942E-1,6.940311939E-2,-9.916419983E0
6.696000000E0,-1.152760237E-1,5.699157715E-2,-9.897046089E0
6.699998437E0,-9.905291349E-2,6.422206759E-2,-9.884499550E0
6.704000000E0,-1.096352860E-1,6.778463721E-2,-9.853912354E0
6.707998437E0,-1.006618217E-1,6.284300983E-2,-9.867128372E0
6.712000000E0,-1.130637825E-1,5.503791198E-2,-9.884480476E0
6.716000000E0,-1.130158976E-1,6.157886982E-2,-9.904582977E0
6.720000000E0,-1.253699809E-1,5.448245257E-2,-9.895733833E0
6.723998437E0,-1.359331906E-1,6.163632870E-2,-9.903874397E0
6.727998437E0,-1.184459478E-1,5.286397040E-2,-9.887631416E0
6.731998437E0,-1.194802374E-1,4.535575956E-2,-9.873400688E0
6.736000000E0,-1.167029664E-1,4.525998980E-2,-9.874855995E0
6.739998437E0,-1.125849411E-1,4.989516363E-2,-9.885553360E0
6.743998437E0,-1.224011704E-1,5.690538883E-2,-9.885543823E0
6.747998437E0,-1.207922697E-1,5.250005424E-2,-9.883685112E0
6.751998437E0,-1.327728480E-1,4.404373467E-2,-9.884614944E0
6.756000000E0,-1.208497211E-1,4.385219887E-2,-9.904103279E0
6.759998437E0,-1.153717861E-1,5.281608924E-2,-9.943177223E0
6.763998437E0,-1.312022507E-1,7.731355727E-2,-9.949152946E0
6.768000000E0,-1.323418915E-1,8.960060030E-2,-9.925613403E0
6.771998437E0,-1.164443940E-1,7.403828949E-2,-9.878054619E0
6.775998437E0,-1.221521646E-1,5.812164024E-2,-9.844851494E0
6.780000000E0,-1.124604419E-1,2.489012107E-2,-9.816428185E0
6.784000000E0,-1.232247725E-1,2.617341280E-2,-9.817634583E0
6.787998437E0,-1.209933758E-1,5.177221820E-2,-9.878801346E0
6.791998437E0,-1.135521978E-1,5.859090388E-2,-9.962790489E0
6.796000000E0,-1.340178400E-1,7.969819009E-2,-9.980536461E0
6.799998437E0,-1.417558938E-1,1.033528969E-1,-9.926580429E0
6.803998437E0,-1.221617535E-1,7.133763283E-2,-9.844908714E0
6.807998437E0,-1.063121334E-1,4.412992299E-2,-9.821254730E0
6.812000000E0,-1.128339395E-1,-4.137180280E-3,-9.822557449E0
6.815998437E0,-1.174499616E-1,1.949837804E-2,-9.827182770E0
6.819998437E0,-1.171530783E-1,5.640739202E-2,-9.904870033E0
6.823998437E0,-1.143087670E-1,7.403828949E-2,-9.970432281E0
6.828000000E0,-1.283866763E-1,9.469546378E-2,-9.985861778E0
6.831998437E0,-1.269693077E-1,1.103152409E-1,-9.926398277E0
6.835998437E0,-1.279557198E-1,9.080728143E-2,-9.836893082E0
6.839998437E0,-1.187236682E-1,4.199429601E-2,-9.809254646E0
6.844000000E0,-1.139448434E-1,9.452308528E-3,-9.805826187E0
6.847998437E0,-1.209167615E-1,2.822284959E-2,-9.862234116E0
6.851998437E0,-1.174212247E-1,4.428315535E-2,-9.928342819E0
6.855998437E0,-1.072698161E-1,7.512047887E-2,-9.982126236E0
6.860000000E0,-1.195377037E-1,7.922892272E-2,-9.961669922E0
6.863998437E0,-1.345445514E-1,8.036856353E-2,-9.905204773E0
6.867998437E0,-1.215201020E-1,7.963114977E-2,-9.828246117E0
6.871998437E0,-1.039945483E-1,4.744350165E-2,-9.807214737E0
6.876000000E0,-1.180149913E-1,1.953668520E-2,-9.825909615E0
6.879998437E0,-1.233780012E-1,4.070142657E-2,-9.896097183E0
6.883998437E0,-1.211849153E-1,6.676950306E-2,-9.958547592E0
6.887998437E0,-1.106791571E-1,7.999506593E-2,-9.964265823E0
6.892000000E0,-1.207731068E-1,8.127836138E-2,-9.936406136E0
6.896000000E0,-1.159847081E-1,6.474879384E-2,-9.874855995E0
6.900000000E0,-1.031805202E-1,5.688623339E-2,-9.832123756E0
6.903998437E0,-9.513600171E-2,4.932055622E-2,-9.835351944E0
6.908000000E0,-1.147971824E-1,6.003700197E-2,-9.867233276E0
6.911998437E0,-1.119049937E-1,4.605486244E-2,-9.911132812E0
6.916000000E0,-1.187524050E-1,5.356308073E-2,-9.954066277E0
6.919998437E0,-1.212040633E-1,7.005434483E-2,-9.940725327E0
6.924000000E0,-1.110239178E-1,7.542693615E-2,-9.899976730E0
6.927998437E0,-1.066952050E-1,5.615839362E-2,-9.861448288E0
6.931998437E0,-9.680236131E-2,5.082411319E-2,-9.849620819E0
6.936000000E0,-9.367074817E-2,3.978205472E-2,-9.858959198E0
6.940000000E0,-1.129009798E-1,7.954496145E-2,-9.877537727E0
6.943998437E0,-1.172967330E-1,7.699752599E-2,-9.927767754E0
6.947998437E0,-1.256668568E-1,5.935704708E-2,-9.950235367E0
6.952000000E0,-1.366323084E-1,6.084145233E-2,-9.937152863E0
6.956000000E0,-1.243452579E-1,5.318000913E-2,-9.884835243E0
6.959998437E0,-1.106695756E-1,4.457045719E-2,-9.861343384E0
6.963998437E0,-1.007480100E-1,5.799714103E-2,-9.866045952E0
6.968000000E0,-1.192408204E-1,6.228755042E-2,-9.878629684E0
6.972000000E0,-1.325334311E-1,6.467217207E-2,-9.898041725E0
6.975998437E0,-1.207348034E-1,5.479848757E-2,-9.921821594E0
6.979998437E0,-1.125849411E-1,5.768110603E-2,-9.916055679E0
6.984000000E0,-1.180724502E-1,3.518518806E-2,-9.892765045E0
6.987998437E0,-1.195951626E-1,5.081453547E-2,-9.869138718E0
6.991998437E0,-1.229853481E-1,6.404968351E-2,-9.847227097E0
6.995998437E0,-1.287505925E-1,7.446924597E-2,-9.869521141E0
7.000000000E0,-1.178809106E-1,6.409756839E-2,-9.898731232E0
7.003998437E0,-1.256477088E-1,6.200024858E-2,-9.912464142E0
7.007998437E0,-1.242399141E-1,5.718311295E-2,-9.909189224E0
7.011998437E0,-1.207731068E-1,5.448245257E-2,-9.896824837E0
7.016000000E0,-1.262989342E-1,3.479253873E-2,-9.876522064E0
7.019998437E0,-1.141172349E-1,6.422206759E-2,-9.858671188E0
7.023998437E0,-1.014088094E-1,5.637866259E-2,-9.870671272E0
7.027998437E0,-1.156112105E-1,6.130113825E-2,-9.879031181E0
7.032000000E0,-1.190014035E-1,7.241023332E-2,-9.904879570E0
7.036000000E0,-1.300817728E-1,6.137775257E-2,-9.907311440E0
7.039998437E0,-1.423017681E-1,5.921339616E-2,-9.904563904E0
7.043998437E0,-1.298998147E-1,3.743573651E-2,-9.898817062E0
7.048000000E0,-1.126711369E-1,5.134126171E-2,-9.882996559E0
7.051998437E0,-9.984778613E-2,5.735549703E-2,-9.873084068E0
7.055998437E0,-9.802819043E-2,5.550717190E-2,-9.863067627E0
7.059998437E0,-1.031517833E-1,6.590758264E-2,-9.876944542E0
7.064000000E0,-9.655337036E-2,5.278735608E-2,-9.899564743E0
7.067998437E0,-1.055459902E-1,5.030696467E-2,-9.905923843E0
7.071998437E0,-1.233588457E-1,5.707776919E-2,-9.908661842E0
7.075998437E0,-1.113112271E-1,5.807375535E-2,-9.904908180E0
7.080000000E0,-1.190205514E-1,5.540182814E-2,-9.899660110E0
7.083998437E0,-1.183501780E-1,6.492117047E-2,-9.886932373E0
7.087998437E0,-1.159272492E-1,5.937620252E-2,-9.870604515E0
7.091998437E0,-1.230045110E-1,4.532702640E-2,-9.899680138E0
7.096000000E0,-1.178426072E-1,5.995080993E-2,-9.888503075E0
7.099998437E0,-1.090127975E-1,5.341942981E-2,-9.886884689E0
7.104000000E0,-1.038125828E-1,6.719087809E-2,-9.886453629E0
7.108000000E0,-1.170956194E-1,6.507439911E-2,-9.887038231E0
7.112000000E0,-1.151515245E-1,6.107129529E-2,-9.884673119E0
7.115998437E0,-1.122976393E-1,6.976703554E-2,-9.892286301E0
7.119998437E0,-1.198058575E-1,7.391379774E-2,-9.879223824E0
7.124000000E0,-1.253316700E-1,5.892609432E-2,-9.894920349E0
7.127998437E0,-1.290091723E-1,6.017107889E-2,-9.903451920E0
7.131998437E0,-1.199399233E-1,5.297889560E-2,-9.880880356E0
7.135998437E0,-1.193365827E-1,5.249048024E-2,-9.892841339E0
7.140000000E0,-1.242877990E-1,5.540182814E-2,-9.883072853E0
7.144000000E0,-1.097693592E-1,4.394796863E-2,-9.876369476E0
7.147998437E0,-9.148723632E-2,6.091806665E-2,-9.884413719E0
7.151998437E0,-1.201410443E-1,6.112875789E-2,-9.891088486E0
7.156000000E0,-1.213956028E-1,7.044699043E-2,-9.880190849E0
7.160000000E0,-1.271704137E-1,5.803544819E-2,-9.888043404E0
7.163998437E0,-1.262223125E-1,5.442498997E-2,-9.888119698E0
7.167998437E0,-1.345445514E-1,4.178360850E-2,-9.889374733E0
7.172000000E0,-1.350425631E-1,6.326438487E-2,-9.892256737E0
7.176000000E0,-1.096927449E-1,7.687303424E-2,-9.884308815E0
7.179998437E0,-9.843041748E-2,6.350380927E-2,-9.894680023E0
7.183998437E0,-1.015907675E-1,6.831136346E-2,-9.894900322E0
7.188000000E0,-1.142608821E-1,5.811206251E-2,-9.896940231E0
7.192000000E0,-1.224490479E-1,4.414907843E-2,-9.904879570E0
7.195998437E0,-1.260882467E-1,5.659892783E-2,-9.889412880E0
7.199998437E0,-1.242016032E-1,5.198290572E-2,-9.899804115E0
7.204000000E0,-1.187236682E-1,4.465664923E-2,-9.889547348E0
7.207998437E0,-1.317002475E-1,5.363969505E-2,-9.900368690E0
7.211998437E0,-1.188673228E-1,6.562986225E-2,-9.884548187E0
7.215998437E0,-1.104301587E-1,6.433699280E-2,-9.877968788E0
7.220000000E0,-1.217978299E-1,7.128974795E-2,-9.885055542E0
7.223998437E0,-1.219606325E-1,4.184106737E-2,-9.869215965E0
7.227998437E0,-1.349180639E-1,4.588248208E-2,-9.891471863E0
7.231998437E0,-1.182927191E-1,6.061160937E-2,-9.905778885E0
7.236000000E0,-1.162049696E-1,5.621585622E-2,-9.911142349E0
7.239998437E0,-1.170668900E-1,6.006573141E-2,-9.901106834E0
7.244000000E0,-1.286165118E-1,6.235458702E-2,-9.896548271E0
7.247998437E0,-1.124317124E-1,5.669469386E-2,-9.892324448E0
7.252000000E0,-1.317960173E-1,6.728664041E-2,-9.888550758E0
7.255998437E0,-1.341040134E-1,7.411490381E-2,-9.890313148E0
7.259998437E0,-1.437861770E-1,6.300581247E-2,-9.894641876E0
7.263998437E0,-1.400991082E-1,5.176264048E-2,-9.901604652E0
7.268000000E0,-1.437287182E-1,8.092401922E-2,-9.895647049E0
7.271998437E0,-1.574618518E-1,6.571605057E-2,-9.890983582E0
7.275998437E0,-1.493024081E-1,6.137775257E-2,-9.869646072E0
7.280000000E0,-9.892841429E-2,4.234864190E-2,-9.841835022E0
7.284000000E0,-6.343676895E-2,5.211698264E-2,-9.892037392E0
7.287998437E0,-5.580405518E-2,4.762545973E-2,-9.932335854E0
7.291998437E0,-4.049073905E-2,6.059245765E-2,-1.005533123E1
7.296000000E0,3.121655881E-1,1.600284316E-2,-1.113044262E1
7.299998437E0,-1.708885282E-1,-1.900038496E-2,-9.951307297E0
7.303998437E0,-3.377165198E-1,1.185608655E-2,-7.962032795E0
7.307998437E0,-1.256955862E-1,1.417367458E-1,-9.296273232E0
7.312000000E0,-3.508654833E-1,2.294602990E-2,-9.390892982E0
7.316000000E0,-1.389594674E-1,-9.097966366E-3,-1.111613464E1
7.319998437E0,-2.905890644E-1,-1.592622884E-2,-1.081085491E1
7.323998437E0,-3.478200436E-1,2.876010835E-1,-9.376785278E0
7.328000000E0,-2.043211609E-1,7.959283888E-2,-9.848127365E0
7.331998437E0,9.075939655E-2,-3.847003356E-2,-1.006472588E1
7.335998437E0,9.388143569E-2,4.979939549E-4,-1.001325130E1
7.339998437E0,-1.152185574E-1,2.228139788E-1,-9.680495262E0
7.344000000E0,2.853888553E-3,1.497716755E-1,-9.909648895E0
7.347998437E0,3.640144318E-2,-5.004839227E-2,-1.018377495E1
7.351998437E0,-1.786074415E-2,5.235640332E-2,-9.961679459E0
7.355998437E0,-1.756673753E-1,-2.484223805E-2,-9.365369797E0
7.360000000E0,-2.420058995E-1,1.163486242E-1,-9.617135048E0
7.363998437E0,-1.938249916E-1,-4.378515854E-2,-1.025176048E1
7.367998437E0,-9.509769082E-2,5.431006849E-2,-1.015098476E1
7.371998437E0,-2.514103353E-1,1.759067774E-1,-9.852207184E0
7.376000000E0,-1.810303777E-1,1.518115401E-1,-9.755597115E0
7.379998437E0,-3.788584843E-2,5.469314009E-2,-9.962378502E0
7.384000000E0,-4.823837802E-2,-5.476018041E-2,-9.953443527E0
7.387998437E0,-6.487329304E-2,6.561069936E-2,-9.661293030E0
7.392000000E0,-1.098842844E-1,8.919838071E-2,-9.696009636E0
7.395998437E0,-1.531523019E-1,5.679046735E-3,-1.005806065E1
7.399998437E0,-7.193139941E-2,3.996401653E-2,-1.005806065E1
7.403998437E0,-1.803887337E-1,5.190629140E-2,-9.918354034E0
7.408000000E0,-2.025398910E-1,7.660488039E-2,-9.814512253E0
7.411998437E0,-1.391031146E-1,1.118475273E-1,-9.761361122E0
7.416000000E0,-2.038710564E-1,7.263050228E-2,-9.891490936E0
7.419998437E0,-1.750257313E-1,6.545747072E-2,-9.915260315E0
7.424000000E0,-8.503247052E-2,7.004476339E-2,-9.921993256E0
7.427998437E0,-7.574296743E-2,4.250187054E-2,-1.003938580E1
7.431998437E0,-3.121081367E-2,3.405512497E-2,-9.899085999E0
7.435998437E0,-2.821327187E-2,4.480030015E-2,-9.719060898E0
7.440000000E0,-9.404424578E-2,3.038720787E-2,-9.748978615E0
7.443998437E0,-3.844130412E-2,3.099054657E-2,-9.907139778E0
7.447998437E0,-9.275137633E-2,5.040273443E-2,-9.984578133E0
7.452000000E0,-1.515242308E-1,9.794200212E-2,-9.976331711E0
7.456000000E0,-1.463527679E-1,8.332780004E-2,-9.893923759E0
7.459998437E0,-1.613883525E-1,5.294058472E-2,-9.858623505E0
7.463998437E0,-1.521275789E-1,3.012863360E-2,-9.828092575E0
7.468000000E0,-1.381645948E-1,7.226658612E-2,-9.850052834E0
7.472000000E0,-1.151132211E-1,4.608359560E-2,-9.872912407E0
7.475998437E0,-1.240004972E-1,4.852567986E-2,-9.938800812E0
7.479998437E0,-7.047571987E-2,6.997773051E-2,-9.944996834E0
7.484000000E0,-6.490202248E-2,4.582501948E-2,-9.924320221E0
7.487998437E0,-5.040273443E-2,2.791639045E-2,-9.845464706E0
7.491998437E0,-6.235458702E-2,4.383304715E-2,-9.806984901E0
7.495998437E0,-9.696517140E-2,4.783615097E-2,-9.859619141E0
7.500000000E0,-1.155729070E-1,6.167463586E-2,-9.945073128E0
7.504000000E0,-1.462953091E-1,5.289270356E-2,-9.931799889E0
7.508000000E0,-1.712237298E-1,7.574296743E-2,-9.852752686E0
7.511998437E0,-1.717791855E-1,7.958326489E-2,-9.910443306E0
7.516000000E0,-1.206581891E-1,7.626011223E-2,-9.881752014E0
7.519998437E0,-1.391510069E-1,7.891288400E-2,-9.872471809E0
7.523998437E0,-1.482585520E-1,4.745307937E-2,-9.881405830E0
7.527998437E0,-7.833828032E-2,5.076665059E-2,-9.922395706E0
7.532001562E0,-7.149086148E-2,3.329855576E-2,-9.917990685E0
7.536001562E0,-8.226477355E-2,4.743392393E-2,-9.823103905E0
7.540000000E0,-1.059386358E-1,3.355713189E-2,-9.796326637E0
7.543998437E0,-1.251497120E-1,3.767516091E-2,-9.918305397E0
7.548000000E0,-1.475594342E-1,5.426218733E-2,-9.945369720E0
7.551998437E0,-1.478371769E-1,7.920976728E-2,-9.909064293E0
7.556001562E0,-1.724878699E-1,8.187212050E-2,-9.906105042E0
7.560000000E0,-1.195281222E-1,6.385814399E-2,-9.881310463E0
7.564000000E0,-1.041286215E-1,6.276638806E-2,-9.881196022E0
7.568000000E0,-9.907206893E-2,5.626374111E-2,-9.874454498E0
7.572000000E0,-9.942640364E-2,5.706819147E-2,-9.859610558E0
7.575998437E0,-7.558016479E-2,2.962106280E-2,-9.835678101E0
7.580000000E0,-7.207505405E-2,2.401863039E-2,-9.831272125E0
7.583998437E0,-7.008306682E-2,2.251507156E-2,-9.865729332E0
7.587998437E0,-1.149982959E-1,3.977248073E-2,-9.921197891E0
7.591998437E0,-1.309819818E-1,5.317043141E-2,-9.982499123E0
7.596000000E0,-1.626812071E-1,6.817728281E-2,-9.939040184E0
7.599998437E0,-1.416505426E-1,9.254068881E-2,-9.931196213E0
7.603998437E0,-1.179096475E-1,8.238926530E-2,-9.909801483E0
7.608000000E0,-1.163198948E-1,4.176445305E-2,-9.815987587E0
7.612000000E0,-1.108515412E-1,4.577713832E-2,-9.750530243E0
7.615998437E0,-9.436027706E-2,1.848323643E-2,-9.791040421E0
7.619998437E0,-8.057925105E-2,3.259944916E-2,-9.868582726E0
7.624000000E0,-1.116272584E-1,6.120537221E-2,-9.953654289E0
7.628000000E0,-1.148642227E-1,1.052491069E-1,-9.983332634E0
7.631998437E0,-9.418790042E-2,1.167795807E-1,-9.949363708E0
7.635998437E0,-1.236269996E-1,8.962933719E-2,-9.897946358E0
7.640000000E0,-1.158123240E-1,1.028549019E-2,-9.853864670E0
7.644000000E0,-1.033720523E-1,-1.110909623E-3,-9.799945831E0
7.647998437E0,-1.560827941E-1,2.579034120E-2,-9.803221703E0
7.651998437E0,-1.489480734E-1,5.086242035E-2,-9.913708687E0
7.656000000E0,-1.817390621E-1,1.112920716E-1,-1.008179188E1
7.659998437E0,-1.541482806E-1,1.391222626E-1,-1.008850479E1
7.663998437E0,-1.172775701E-1,1.122689024E-1,-9.927710533E0
7.667998437E0,-1.047319546E-1,6.855078042E-2,-9.814187050E0
7.672000000E0,-7.136636227E-2,9.557653219E-3,-9.792831421E0
7.675998437E0,-4.299986362E-2,3.648763523E-3,-9.800434113E0
7.679998437E0,-7.348284125E-2,1.350329723E-3,-9.843673706E0
7.683998437E0,-1.040615812E-1,2.211284637E-2,-9.897400856E0
7.688000000E0,-1.138107777E-1,7.096414268E-2,-1.002102757E1
7.691998437E0,-1.234450415E-1,1.067335159E-1,-1.006748390E1
7.695998437E0,-1.572894752E-1,1.032667086E-1,-9.855214119E0
7.699998437E0,-1.465730220E-1,7.931511849E-2,-9.735332489E0
7.704000000E0,-1.269693077E-1,5.576574802E-2,-9.757865906E0
7.708000000E0,-9.974244237E-2,2.384624816E-2,-9.788750648E0
7.711998437E0,-1.049043462E-1,8.408436552E-3,-9.854868889E0
7.715998437E0,-9.877518564E-2,3.122038953E-2,-9.896193504E0
7.720000000E0,-6.255570054E-2,5.318958685E-2,-9.976092339E0
7.723998437E0,-9.902418405E-2,3.666959330E-2,-9.976830482E0
7.727998437E0,-1.204858124E-1,7.359776646E-2,-9.891711235E0
7.731998437E0,-1.107749268E-1,8.522401005E-2,-9.903874397E0
7.736000000E0,-1.155920550E-1,7.544608414E-2,-9.854955673E0
7.739998437E0,-1.531331539E-1,4.020343348E-2,-9.788157463E0
7.743998437E0,-1.673451215E-1,5.507621914E-2,-9.761839867E0
7.747998437E0,-1.854357123E-1,7.598238438E-2,-9.920825005E0
7.752000000E0,-1.460558772E-1,6.526593864E-2,-1.002778816E1
7.755998437E0,-1.120486408E-1,6.306327134E-2,-9.930295944E0
7.760000000E0,-1.070591211E-1,6.280469894E-2,-9.846997261E0
7.763998437E0,-8.323202282E-2,6.330269575E-2,-9.876273155E0
7.768000000E0,-7.468951494E-2,5.720226839E-2,-9.925077438E0
7.771998437E0,-8.314583451E-2,3.462015465E-2,-9.901565552E0
7.775998437E0,-1.302637309E-1,3.839341551E-2,-9.850894928E0
7.780000000E0,-1.312309802E-1,4.863102362E-2,-9.870604515E0
7.784000000E0,-1.194898114E-1,3.848918527E-2,-9.938771248E0
7.787998437E0,-1.374080181E-1,3.713885322E-2,-9.909926414E0
7.791998437E0,-1.375133693E-1,6.216305122E-2,-9.821514130E0
7.796000000E0,-1.329643875E-1,8.441955596E-2,-9.800549507E0
7.799998437E0,-1.068675816E-1,8.848011494E-2,-9.902523041E0
7.803998437E0,-1.190971658E-1,6.101383641E-2,-9.965567589E0
7.807998437E0,-1.308096051E-1,4.191768169E-2,-9.910549164E0
7.812000000E0,-1.433552206E-1,5.250963196E-2,-9.876311302E0
7.815998437E0,-1.151036397E-1,4.143884405E-2,-9.855443954E0
7.819998437E0,-1.031326279E-1,3.686112911E-2,-9.871322632E0
7.824000000E0,-1.204379201E-1,7.808928192E-2,-9.835189819E0
7.828000000E0,-1.062546670E-1,8.556877077E-2,-9.877173424E0
7.831998437E0,-1.264138520E-1,7.794563472E-2,-9.974388123E0
7.835998437E0,-1.343913227E-1,5.645527691E-2,-9.875908852E0
7.839998437E0,-1.367759556E-1,1.566765644E-2,-9.574718475E0
7.844000000E0,-1.547803432E-1,3.589387238E-2,-9.525331497E0
7.847998437E0,-2.242313474E-1,8.252334595E-2,-9.750636101E0
7.851998437E0,-1.849281229E-2,-3.734954633E-3,-1.083835983E1
7.855998437E0,1.381933223E-2,1.076433137E-1,-1.001429462E1
7.860000000E0,-3.801130354E-1,1.934802234E-1,-9.553668976E0
7.863998437E0,-7.038952410E-2,7.712202519E-2,-9.794995308E0
7.867998437E0,8.704359084E-2,-4.769249633E-2,-1.011501408E1
7.871998437E0,-2.225649804E-1,6.150225550E-2,-9.663850784E0
7.876000000E0,-1.941505969E-1,1.457398534E-1,-9.806592941E0
7.879998437E0,-2.957317978E-2,7.309976965E-2,-1.021778202E1
7.883998437E0,-5.685750023E-2,2.337698638E-2,-9.977414131E0
7.887998437E0,-8.944737166E-2,3.917871416E-2,-9.511885643E0
7.892000000E0,-8.215942234E-2,7.137593627E-2,-9.833263397E0
7.895998437E0,-9.555738419E-2,7.618349791E-2,-1.010877895E1
7.899998437E0,-8.392155170E-2,9.479123354E-2,-9.967989922E0
7.903998437E0,-1.039083526E-1,5.144660547E-2,-9.837257385E0
7.908000000E0,-1.135138944E-1,3.040636331E-2,-9.836329460E0
7.911998437E0,-1.784159094E-1,8.757989854E-2,-9.787113190E0
7.915998437E0,-1.808484197E-1,9.331640601E-2,-9.925881386E0
7.919998437E0,-1.324663907E-1,5.985504016E-2,-1.001004219E1
7.923998437E0,-1.581513882E-1,6.222051382E-2,-9.845321655E0
7.927998437E0,-1.765771657E-1,9.274179488E-2,-9.772451401E0
7.931998437E0,-2.298337817E-1,9.780792892E-2,-9.916543961E0
7.935998437E0,-1.395149231E-1,6.488286704E-2,-9.960625648E0
7.940000000E0,-9.213846177E-2,5.235640332E-2,-9.841633797E0
7.943998437E0,-1.129392833E-1,8.029194921E-2,-9.912704468E0
7.947998437E0,-8.176677674E-2,6.583096832E-2,-9.876560211E0
7.952000000E0,-9.519346058E-2,3.375824541E-2,-9.974771500E0
7.956000000E0,-1.086105630E-1,3.013820946E-2,-9.908844948E0
7.959998437E0,-1.767782718E-1,5.557421222E-2,-9.764158249E0
7.963998437E0,-9.863153100E-2,6.137775257E-2,-9.763927460E0
7.968000000E0,3.034890071E-2,7.288907468E-2,-9.943752289E0
7.971998437E0,1.626141742E-2,6.550535560E-2,-1.006535816E1
