"Time (s)","Gyroscope x (rad/s)","Gyroscope y (rad/s)","Gyroscope z (rad/s)"
1.538510000E-1,1.815142459E-3,2.373647876E-3,-2.443460980E-4
1.568510000E-1,-6.108652451E-4,1.151917269E-3,-2.443460980E-4
1.608510000E-1,-6.108652451E-4,-5.235987919E-5,-2.443460980E-4
1.648510000E-1,-6.108652451E-4,-5.235987919E-5,-2.443460980E-4
1.688510000E-1,-6.108652451E-4,1.151917269E-3,-2.687806962E-3
1.728510000E-1,-6.108652451E-4,-5.235987919E-5,-1.466076588E-3
1.768510000E-1,-6.108652451E-4,-1.274090377E-3,9.599310579E-4
1.808510000E-1,-1.832595677E-3,-1.274090377E-3,-2.443460980E-4
1.848510000E-1,5.934119690E-4,1.151917269E-3,-1.466076588E-3
1.888510000E-1,-4.276056774E-3,1.151917269E-3,-2.443460980E-4
1.928510000E-1,-1.832595677E-3,-1.274090377E-3,-2.687806962E-3
1.968510000E-1,-5.235987483E-4,0.000000000E0,-1.186823938E-3
2.008510000E-1,-8.726646192E-4,1.570796303E-4,-1.378810150E-3
2.048510000E-1,-9.599310579E-4,2.094395168E-4,-9.773843922E-4
2.088510000E-1,-6.806784077E-4,2.094395168E-4,-8.726646192E-4
2.128510000E-1,-7.679448463E-4,2.094395168E-4,-8.377580671E-4
2.168510000E-1,-4.886921961E-4,2.094395168E-4,-1.134464052E-3
2.208510000E-1,-5.585053586E-4,6.632251316E-4,-1.064650831E-3
2.248510000E-1,-2.792526793E-4,3.316125658E-4,-1.640609466E-3
2.288510000E-1,6.806784077E-4,-3.490658492E-5,-1.500983140E-3
2.328510000E-1,1.919862116E-4,-7.330382941E-4,-2.617993741E-4
2.368510000E-1,-2.268928074E-4,-6.283185212E-4,-9.773843922E-4
2.408510000E-1,-3.490658419E-4,0.000000000E0,-1.029744279E-3
2.448510000E-1,-5.235987483E-4,6.108652451E-4,-1.640609466E-3
2.488510000E-1,-1.221730490E-4,1.989675453E-3,-1.204277156E-3
2.528510000E-1,1.221730490E-4,1.274090377E-3,-9.250245057E-4
2.568510000E-1,-3.263765713E-3,5.235987919E-5,-2.617993741E-4
2.608510000E-1,1.570796361E-3,1.815142459E-3,-1.291543595E-3
2.648510000E-1,-1.692969352E-3,1.692969352E-3,-9.599310579E-4
2.688510000E-1,-4.171337001E-3,5.585053470E-3,-1.326450263E-3
2.728510000E-1,-2.443460980E-3,1.308996929E-3,-9.599310579E-4
2.768510000E-1,-3.019419499E-3,9.424777818E-4,-8.726646192E-4
2.808510000E-1,5.585053586E-4,-2.443460980E-3,-1.151917269E-3
2.848510000E-1,-5.934119690E-4,-1.064650831E-3,-1.064650831E-3
2.888510000E-1,-4.363323096E-4,3.490658492E-5,-8.901178953E-4
2.928510000E-1,-9.948377265E-4,4.712388909E-4,-4.014257283E-4
2.968510000E-1,-8.552113432E-4,8.901178953E-4,-7.155850180E-4
3.008510000E-1,-5.061454722E-4,3.839724232E-4,-8.028514567E-4
3.048510000E-1,-7.155850180E-4,2.617993741E-4,-5.235987483E-4
3.088510000E-1,-1.378810150E-3,-5.061454722E-4,-6.108652451E-4
3.128510000E-1,-6.457717973E-4,-1.047197584E-4,-7.679448463E-4
3.168510000E-1,-4.537856148E-4,-1.570796303E-4,-1.570796361E-3
3.208510000E-1,-5.585053586E-4,-4.712388909E-4,-1.186823938E-3
3.248510000E-1,-8.726646192E-4,1.745329209E-4,-1.221730490E-3
3.288510000E-1,-2.775073517E-3,8.203047328E-4,-7.853981806E-4
3.328588120E-1,4.712388909E-4,-2.617993858E-3,-2.268928074E-4
3.368510000E-1,8.726646192E-4,-9.599310579E-4,-6.806784077E-4
3.408494370E-1,8.726646047E-5,-6.981316983E-5,-1.553343027E-3
3.448510000E-1,1.745329209E-4,-1.658062800E-3,-7.155850180E-4
3.488494370E-1,-8.726646047E-5,1.745329209E-4,-9.599310579E-4
3.528494370E-1,-4.537856148E-4,2.094395168E-4,-7.155850180E-4
3.568494370E-1,1.745329209E-4,2.094395168E-4,-8.028514567E-4
3.608510000E-1,-2.164208330E-3,1.413716702E-3,-1.134464052E-3
3.648510000E-1,-2.984513063E-3,-1.919862116E-4,-1.064650831E-3
3.688494370E-1,-2.967059845E-4,-3.316125658E-4,-8.901178953E-4
3.728494370E-1,-6.632251316E-4,6.981316983E-5,-8.552113432E-4
3.768510000E-1,-6.108652451E-4,3.490658477E-3,-8.377580671E-4
3.808494370E-1,-4.363323096E-4,1.378810150E-3,-3.839724232E-4
3.848510000E-1,-2.809980186E-3,1.867502346E-3,-7.155850180E-4
3.888494370E-1,-1.919862116E-3,2.303834539E-3,-5.061454722E-4
3.928510000E-1,-9.424777818E-4,4.537856148E-4,-5.934119690E-4
3.968494370E-1,3.490658419E-4,-2.967059845E-4,-4.712388909E-4
4.008494370E-1,-4.886921961E-4,2.268928074E-4,-5.934119690E-4
4.048510000E-1,-1.308996929E-3,6.806784077E-4,-1.221730490E-3
4.088510000E-1,-7.853981806E-4,-5.410520826E-4,-4.886921961E-4
4.128494370E-1,-1.919862116E-4,-1.221730490E-4,-2.967059845E-4
4.168494370E-1,6.981316837E-4,7.330382941E-4,-2.443460980E-4
4.208510000E-1,3.490658419E-4,6.457717973E-4,-9.773843922E-4
4.248510000E-1,-3.351032268E-3,2.583087189E-3,-1.029744279E-3
4.288494370E-1,-1.169370604E-3,3.543018363E-3,-8.901178953E-4
4.328494370E-1,-5.759586347E-4,1.692969352E-3,-8.552113432E-4
4.368510000E-1,-8.901178953E-4,1.570796303E-4,-5.410520826E-4
4.408494370E-1,-3.368485486E-3,2.321287990E-3,0.000000000E0
4.448510000E-1,-2.094394993E-3,-2.617993741E-4,1.221730490E-4
4.488494370E-1,-2.094395168E-4,-1.570796361E-3,-5.759586347E-4
4.528510000E-1,-7.853981806E-4,-5.410520826E-4,-7.679448463E-4
4.568494370E-1,-3.316125658E-4,1.064650831E-3,-8.203047328E-4
4.608494370E-1,-2.042035107E-3,7.504915702E-4,-8.377580671E-4
4.648510000E-1,2.094395168E-4,-9.948377265E-4,-8.377580671E-4
4.688510000E-1,-1.727875904E-3,1.117010717E-3,-8.377580671E-4
4.728510000E-1,-1.029744279E-3,1.396263397E-4,-8.377580671E-4
4.768494370E-1,-1.012290944E-3,-8.726646047E-5,-8.377580671E-4
4.808494370E-1,-2.443460980E-4,-2.967059845E-4,-8.377580671E-4
4.848510000E-1,-1.099557383E-3,-5.061454722E-4,-8.377580671E-4
4.888494370E-1,-1.029744279E-3,3.316125658E-4,-8.377580671E-4
4.928494370E-1,-9.948377265E-4,4.014257283E-4,-8.377580671E-4
4.968494370E-1,1.919862116E-4,7.155850180E-4,-8.377580671E-4
5.008510000E-1,8.028514567E-4,1.553343027E-3,-1.291543595E-3
5.048494370E-1,2.617993858E-3,-4.223696887E-3,-1.413716702E-3
5.088510000E-1,2.199114766E-3,-1.919862116E-4,-1.431170036E-3
5.128494370E-1,-4.537856148E-4,-1.745329246E-5,-9.948377265E-4
5.168510000E-1,-3.717551241E-3,7.504915702E-4,-8.726646192E-4
5.208494370E-1,-5.934119225E-3,9.599310579E-4,-8.552113432E-4
5.248494370E-1,-1.832595677E-3,-9.250245057E-4,5.235987919E-5
5.288494370E-1,-1.500983140E-3,6.632251316E-4,-5.934119690E-4
5.328510000E-1,-8.203047328E-4,3.490658492E-5,-7.679448463E-4
5.368494370E-1,5.410520826E-4,-1.762782573E-3,-3.665191471E-4
5.408494370E-1,2.268928103E-3,-1.204277156E-3,-1.012290944E-3
5.448494370E-1,1.396263397E-4,-1.623156248E-3,-2.792526793E-4
5.488510000E-1,-6.981316837E-4,4.712388909E-4,-8.377580671E-4
5.528494370E-1,-1.658062800E-3,4.363323096E-4,-9.948377265E-4
5.568494370E-1,-1.623156248E-3,-1.570796303E-4,-8.726646192E-4
5.608494370E-1,-1.169370604E-3,5.759586347E-4,-8.377580671E-4
5.648510000E-1,-7.330382941E-4,-1.029744279E-3,-8.377580671E-4
5.688494370E-1,-2.879793290E-3,-5.410520826E-4,-5.410520826E-4
5.728494370E-1,2.548180753E-3,-1.221730490E-4,-1.064650831E-3
5.768510000E-1,-6.632251316E-4,2.792526793E-4,-8.901178953E-4
5.808494370E-1,-4.537856148E-4,8.726646047E-5,-1.308996929E-3
5.848510000E-1,-5.585053586E-4,1.745329209E-4,-5.061454722E-4
5.888494370E-1,-1.221730490E-4,2.094395168E-4,-7.504915702E-4
5.928510000E-1,-1.221730490E-3,2.094395168E-4,-3.665191471E-4
5.968510000E-1,-9.075712296E-4,2.094395168E-4,-7.155850180E-4
6.008510000E-1,-9.773843922E-4,2.094395168E-4,-8.028514567E-4
6.048494370E-1,-8.726646047E-5,6.632251316E-4,-2.024581889E-3
6.088510000E-1,-7.504915702E-4,6.283185212E-4,-1.291543595E-3
6.128510000E-1,-4.886921961E-4,4.712388909E-4,-9.599310579E-4
6.168510000E-1,-8.552113432E-4,2.792526793E-4,-8.726646192E-4
6.208510000E-1,-9.599310579E-4,2.443460980E-4,-8.377580671E-4
6.248510000E-1,-8.726646047E-5,-2.094395168E-4,-8.377580671E-4
6.288510000E-1,-4.537856148E-4,1.047197584E-4,-1.134464052E-3
6.328510000E-1,-2.495820867E-3,3.490658492E-5,-4.712388909E-4
6.368510000E-1,1.588249579E-3,-1.047197584E-4,-4.363323096E-4
6.408510000E-1,5.759586347E-4,4.642575979E-3,-7.330382941E-4
6.448510000E-1,-4.363323096E-4,1.815142459E-3,-1.117010717E-3
6.488510000E-1,-5.410520826E-4,6.283185212E-4,-6.108652451E-4
6.528510000E-1,-4.188790335E-4,6.283185212E-4,-1.082104165E-3
6.568510000E-1,-4.014257283E-4,-1.047197584E-4,-1.500983140E-3
6.608510000E-1,-6.806784077E-4,-1.570796303E-4,-1.012290944E-3
6.648510000E-1,-1.570796303E-4,-1.745329209E-4,-8.726646192E-4
6.688510000E-1,-1.745329209E-4,2.617993741E-4,-8.552113432E-4
6.728510000E-1,-3.316125658E-4,-5.235987919E-5,-8.377580671E-4
6.768510000E-1,-8.203047328E-4,1.396263397E-4,-8.377580671E-4
6.808510000E-1,-3.490658419E-4,1.919862116E-4,-8.377580671E-4
6.848510000E-1,-6.981316983E-5,5.061454722E-4,-1.588249579E-3
6.888510000E-1,1.186823938E-3,-2.792526793E-4,-1.186823938E-3
6.928510000E-1,1.570796303E-4,-8.028514567E-4,-1.221730490E-3
6.968510000E-1,-2.443460980E-4,-1.919862116E-4,-1.082104165E-3
7.008510000E-1,-1.919862116E-4,-4.712388909E-4,-9.075712296E-4
7.048510000E-1,-9.250245057E-4,-2.617993741E-4,-8.552113432E-4
7.088510000E-1,-9.773843922E-4,8.726646047E-5,-3.839724232E-4
7.128510000E-1,-2.443460980E-4,-2.443460980E-4,-1.012290944E-3
7.168510000E-1,-2.443460980E-3,8.726646047E-5,-1.029744279E-3
7.208510000E-1,-1.745329246E-5,-4.468042869E-3,0.000000000E0
7.248494370E-1,-5.934119690E-4,-3.839724232E-4,-1.064650831E-3
7.288494370E-1,-1.780235791E-3,-9.773843922E-4,-1.204277156E-3
7.328494370E-1,-1.361356815E-3,5.235987919E-5,-1.082104165E-3
7.368494370E-1,2.216568217E-3,1.745329246E-5,-9.075712296E-4
7.408494370E-1,1.326450263E-3,3.141592606E-4,-5.585053586E-4
7.448494370E-1,-9.948377265E-4,-3.490658492E-5,-6.108652451E-4
7.488510000E-1,1.919862116E-4,0.000000000E0,-7.853981806E-4
7.528494370E-1,-5.235987483E-4,-1.221730490E-4,-1.117010717E-3
7.568494370E-1,-8.726646192E-4,-3.141592606E-4,-1.064650831E-3
7.608494370E-1,8.203047328E-4,3.839724232E-4,-8.901178953E-4
7.648510000E-1,-5.235987483E-4,2.617993741E-4,-8.552113432E-4
7.688510000E-1,-1.780235791E-3,-2.094395168E-4,-8.377580671E-4
7.728494370E-1,-2.967059845E-4,1.047197584E-4,-8.377580671E-4
7.768494370E-1,-2.094395168E-4,1.919862116E-4,-8.377580671E-4
7.808510000E-1,-9.424777818E-4,2.094395168E-4,-1.291543595E-3
7.848510000E-1,-1.274090377E-3,6.632251316E-4,-9.599310579E-4
7.888494370E-1,-1.221730490E-3,1.745329209E-4,-1.169370604E-3
7.928494370E-1,-7.504915702E-4,2.094395168E-4,-7.679448463E-4
7.968510000E-1,-3.316125658E-4,-6.981316983E-5,-6.632251316E-4
8.008494370E-1,-8.203047328E-4,-5.934119690E-4,-7.853981806E-4
8.048494370E-1,-1.850049011E-3,-1.396263397E-4,-8.203047328E-4
8.088494370E-1,-4.712388909E-4,-3.141592606E-4,-8.377580671E-4
8.128510000E-1,-1.047197584E-4,6.981316983E-5,-1.134464052E-3
8.168494370E-1,-9.075712296E-4,1.745329209E-4,-1.518436475E-3
8.208494370E-1,-9.773843922E-4,-6.981316983E-5,-4.188790335E-4
8.248510000E-1,-1.291543595E-3,-4.537856148E-4,-4.188790335E-4
8.288510000E-1,-1.221730490E-3,3.490658492E-5,-7.330382941E-4
8.328494370E-1,-1.047197497E-3,1.221730490E-3,-8.028514567E-4
8.368510000E-1,-1.466076588E-3,7.853981806E-4,-1.134464052E-3
8.408494370E-1,-3.665191471E-4,-1.117010717E-3,-1.064650831E-3
8.448510000E-1,-3.228859045E-3,2.111848444E-3,-8.901178953E-4
8.488494370E-1,2.757620299E-3,2.617993741E-4,-1.151917269E-3
8.528510000E-1,8.726646192E-4,8.377580671E-4,-1.064650831E-3
8.568494370E-1,-1.396263367E-3,5.235987483E-4,-8.901178953E-4
8.608510000E-1,-1.553343027E-3,6.108652451E-4,-1.605702913E-3
8.648494370E-1,-2.443460980E-4,1.745329246E-5,-1.483529806E-3
8.688494370E-1,8.726646047E-5,1.745329246E-5,-2.513274085E-3
8.728494370E-1,-4.014257283E-4,-8.726646192E-4,-1.274090377E-3
8.768510000E-1,5.235987919E-5,2.268928074E-4,-9.424777818E-4
8.808494370E-1,-1.221730490E-4,6.981316983E-5,-1.308996929E-3
8.848494370E-1,-5.288347602E-3,1.256637042E-3,-1.117010717E-3
8.888494370E-1,-4.363323096E-4,-3.717551241E-3,-9.075712296E-4
8.928510000E-1,-1.466076588E-3,1.291543595E-3,-1.151917269E-3
8.968494370E-1,3.665191471E-4,1.256637042E-3,-9.250245057E-4
9.008494370E-1,9.948377265E-4,-2.443460980E-4,-1.308996929E-3
9.048494370E-1,1.466076588E-3,8.726646047E-5,-9.599310579E-4
9.088494370E-1,-1.239183708E-3,1.692969352E-3,-8.726646192E-4
9.128494370E-1,-2.740166849E-3,-1.169370604E-3,-8.377580671E-4
9.168494370E-1,5.061454722E-4,-7.504915702E-4,-1.134464052E-3
9.208510000E-1,-2.967059845E-4,4.188790335E-4,-6.108652451E-4
9.248494370E-1,3.089232836E-3,-1.989675453E-3,-1.082104165E-3
9.288494370E-1,-5.951572675E-3,1.466076588E-3,-1.500983140E-3
9.328494370E-1,-3.193952609E-3,3.839724232E-4,-1.466076588E-3
9.368510000E-1,-1.710422686E-3,-4.712388909E-4,-6.981316837E-4
9.408510000E-1,0.000000000E0,-1.605702913E-3,-9.424777818E-4
9.448494370E-1,0.000000000E0,-1.151917269E-3,-1.012290944E-3
9.488494370E-1,-4.188790335E-4,-2.792526793E-4,-8.901178953E-4
9.528510000E-1,-8.552113432E-4,6.806784077E-4,-8.552113432E-4
9.568494370E-1,8.203047328E-4,-2.338741207E-3,-8.377580671E-4
9.608494370E-1,-5.235987919E-5,-4.363323096E-4,-6.981316837E-4
9.648494370E-1,2.967059845E-4,-1.308996929E-3,-1.919862116E-4
9.688510000E-1,-2.460914198E-3,7.155850180E-4,-9.773843922E-4
9.728494370E-1,-6.283185212E-4,-1.448623254E-3,-1.169370604E-3
9.768494370E-1,1.151917269E-3,-2.757620299E-3,-1.378810150E-3
9.808494370E-1,7.853981806E-4,6.457717973E-4,-1.431170036E-3
9.848510000E-1,-6.806784077E-4,3.316125658E-4,-1.134464052E-3
9.888494370E-1,-1.064650831E-3,1.151917269E-3,-1.518436475E-3
9.928494370E-1,1.745329209E-4,4.537856148E-4,-1.308996929E-3
9.968494370E-1,-3.839724232E-4,4.956734832E-3,-1.413716702E-3
1.000851000E0,1.919862116E-4,-6.457717973E-4,-5.410520826E-4
1.004849437E0,2.094395168E-4,1.047197497E-3,-6.108652451E-4
1.008849437E0,5.235987919E-5,-1.570796303E-4,-4.712388909E-4
1.012849437E0,1.745329246E-5,-1.745329246E-5,-4.363323096E-4
1.016851000E0,0.000000000E0,4.537856148E-4,-5.759586347E-4
1.020849437E0,-1.221730490E-4,-6.108652451E-4,-7.679448463E-4
1.024849437E0,-6.108652451E-4,-5.934119690E-4,-8.203047328E-4
1.028849437E0,-2.967059845E-4,1.570796303E-4,-8.377580671E-4
1.032849437E0,3.839724232E-4,-5.235987483E-4,-8.377580671E-4
1.036849437E0,-6.283185212E-4,-1.221730490E-4,-3.839724232E-4
1.040849437E0,-4.537856148E-4,1.221730490E-4,-1.012290944E-3
1.044849437E0,-1.308996929E-3,1.919862116E-4,-1.483529806E-3
1.048851000E0,-1.082104165E-3,6.632251316E-4,-1.012290944E-3
1.052849437E0,-1.012290944E-3,6.283185212E-4,-8.726646192E-4
1.056849437E0,-4.014257283E-4,4.712388909E-4,-4.014257283E-4
1.060849437E0,-5.410520826E-4,7.330382941E-4,-7.155850180E-4
1.064851000E0,-2.792526793E-4,-8.726646047E-5,-5.061454722E-4
1.068849437E0,-1.413716702E-3,-1.396263397E-4,-5.934119690E-4
1.072849437E0,-1.919862116E-4,-1.745329246E-5,-4.712388909E-4
1.076851000E0,-1.239183708E-3,1.361356815E-3,-8.901178953E-4
1.080851000E0,-1.815142459E-3,6.632251316E-4,-9.948377265E-4
1.084849437E0,-1.658062800E-3,-4.014257283E-4,-8.726646192E-4
1.088849437E0,-1.326450263E-3,-8.726646047E-5,-8.552113432E-4
1.092851000E0,-1.082104165E-3,-1.396263397E-4,-8.377580671E-4
1.096849437E0,-1.012290944E-3,4.188790335E-4,-8.377580671E-4
1.100849437E0,-9.948377265E-4,1.623156248E-3,-8.377580671E-4
1.104849437E0,-2.373647876E-3,-2.967059845E-4,-8.377580671E-4
1.108851000E0,0.000000000E0,9.773843922E-4,-5.410520826E-4
1.112849437E0,-7.330382941E-4,4.188790335E-4,-3.141592606E-4
1.116849437E0,-3.141592606E-4,2.076941775E-3,-2.443460980E-4
1.120849437E0,-8.203047328E-4,1.448623254E-3,-5.235987483E-4
1.124851000E0,1.134464052E-3,5.235987483E-4,-1.064650831E-3
1.128851000E0,-2.844886621E-3,8.150687441E-3,-1.954768784E-3
1.132849437E0,-3.141592722E-3,4.834562074E-3,-2.268928074E-4
1.136849437E0,7.155850180E-4,3.071779385E-3,-1.134464052E-3
1.140851000E0,1.535889693E-3,9.599310579E-4,-9.075712296E-4
1.144851000E0,-6.283185212E-4,-1.745329209E-4,-1.308996929E-3
1.148849437E0,-4.537856148E-4,4.188790335E-4,-9.599310579E-4
1.152849437E0,-1.308996929E-3,2.617993741E-4,-1.221730490E-4
1.156851000E0,-1.535889693E-3,6.806784077E-4,-4.886921961E-4
1.160851000E0,-8.377580671E-4,3.316125658E-4,-7.504915702E-4
1.164851000E0,-5.061454722E-4,4.014257283E-4,-8.203047328E-4
1.168851000E0,-7.155850180E-4,-1.745329246E-5,-8.377580671E-4
1.172851000E0,-4.712388909E-4,-8.901178953E-4,-8.377580671E-4
1.176851000E0,-5.585053586E-4,-5.235987919E-5,-1.291543595E-3
1.180851000E0,-2.792526793E-4,0.000000000E0,-6.457717973E-4
1.184851000E0,-3.211405827E-3,9.250245057E-4,-1.919862116E-4
1.188851000E0,-1.570796361E-3,-1.919862116E-4,-3.665191471E-4
1.192851000E0,-5.410520826E-4,1.151917269E-3,-5.585053586E-4
1.196851000E0,-1.780235791E-3,-1.762782573E-3,-1.570796303E-4
1.200851000E0,-1.186823938E-3,0.000000000E0,-5.235987919E-5
1.204851000E0,2.792526793E-4,6.108652451E-4,-6.283185212E-4
1.208849437E0,-6.632251316E-4,3.141592606E-4,-1.745329209E-4
1.212849437E0,-6.108652451E-4,1.151917269E-3,-1.117010717E-3
1.216849437E0,-1.797689125E-3,3.141592606E-4,-1.204277156E-3
1.220851000E0,1.396263397E-4,-1.396263367E-3,-1.082104165E-3
1.224849437E0,1.919862116E-4,-4.886921961E-4,-1.570796303E-4
1.228849437E0,-3.682644805E-3,-1.605702913E-3,-2.094395168E-4
1.232849437E0,-9.424777818E-4,-1.919862116E-3,-5.235987483E-4
1.236851000E0,4.886921961E-4,-2.565633971E-3,-5.934119690E-4
1.240849437E0,-2.967059845E-4,-4.886921961E-4,-9.250245057E-4
1.244849437E0,-2.600540640E-3,2.722713631E-3,-8.552113432E-4
1.248851000E0,-1.134464052E-3,-1.640609466E-3,-8.726646047E-5
1.252851000E0,4.241149873E-3,-2.391101094E-3,-4.886921961E-4
1.256849437E0,-8.726646047E-5,-5.934119690E-4,-7.504915702E-4
1.260849437E0,-7.504915702E-4,-8.901178953E-4,-8.203047328E-4
1.264851000E0,-5.235987919E-5,-2.914699726E-3,-3.839724232E-4
1.268849437E0,-2.234021435E-3,6.108652451E-4,-1.326450263E-3
1.272849437E0,-3.560471581E-3,3.176499158E-3,6.981316983E-5
1.276849437E0,-6.021386012E-3,-1.413716702E-3,-1.396263397E-4
1.280851000E0,-2.007128671E-3,-1.570796361E-3,-1.256637042E-3
1.284851000E0,-2.443460980E-4,-3.682644805E-3,-3.490658492E-5
1.288849437E0,-1.239183708E-3,1.169370604E-3,-4.886921961E-4
1.292849437E0,1.221730490E-4,7.679448463E-4,-7.504915702E-4
1.296851000E0,-8.726646047E-5,6.632251316E-4,-8.203047328E-4
1.300849437E0,-7.679448463E-4,1.919862116E-4,-5.235987483E-4
1.304849437E0,-4.886921961E-4,-1.134464052E-3,-9.075712296E-4
1.308849437E0,-1.466076588E-3,-5.759586347E-4,-5.585053586E-4
1.312851000E0,2.775073517E-3,4.537856148E-4,-3.141592606E-4
1.316849437E0,1.483529806E-3,3.001966281E-3,-6.981316837E-4
1.320849437E0,-1.919862116E-4,7.853981806E-4,-8.028514567E-4
1.324849437E0,-6.283185212E-4,-3.490658419E-4,-5.235987483E-4
1.328851000E0,-4.049163777E-3,1.692969352E-3,-4.537856148E-4
1.332849437E0,-1.954768784E-3,3.176499158E-3,-8.901178953E-4
1.336849437E0,8.726646047E-5,1.588249579E-3,-8.552113432E-4
1.340849437E0,1.832595677E-3,-9.075712296E-4,-8.377580671E-4
1.344851000E0,-4.171337001E-3,-5.235987919E-5,-5.410520826E-4
1.348849437E0,-2.111848444E-3,-7.679448463E-4,-6.108652451E-4
1.352852562E0,-1.134464052E-3,-6.283185212E-4,-1.221730490E-3
1.356849437E0,-7.330382941E-4,-1.396263397E-4,-9.424777818E-4
1.360851000E0,-1.989675453E-3,1.221730490E-4,-8.552113432E-4
1.364851000E0,-1.553343027E-3,1.919862116E-4,-1.291543595E-3
1.368849437E0,-1.291543595E-3,-6.981316983E-5,-9.599310579E-4
1.372849437E0,-1.064650831E-3,0.000000000E0,-1.326450263E-3
1.376849437E0,-1.169370604E-3,1.064650831E-3,-9.599310579E-4
1.380849437E0,-8.901178953E-4,4.363323096E-4,-1.169370604E-3
1.384851000E0,-8.203047328E-4,2.792526793E-4,-1.082104165E-3
1.388849437E0,-1.396263367E-3,6.806784077E-4,-8.901178953E-4
1.392851000E0,-1.256637042E-3,3.316125658E-4,-8.552113432E-4
1.396849437E0,-1.064650831E-3,5.410520826E-4,-5.410520826E-4
1.400849437E0,-5.585053586E-4,4.537856148E-4,-6.108652451E-4
1.404849437E0,-1.483529806E-3,0.000000000E0,-7.679448463E-4
1.408851000E0,-6.806784077E-4,-5.759586347E-4,-8.203047328E-4
1.412849437E0,-1.570796303E-4,-4.188790335E-4,-8.377580671E-4
1.416849437E0,-7.679448463E-4,-2.443460980E-4,-8.377580671E-4
1.420851000E0,-1.082104165E-3,-3.490658492E-5,-5.410520826E-4
1.424851000E0,-1.012290944E-3,1.396263397E-4,2.792526793E-4
1.428849437E0,-2.617993741E-4,-2.321287990E-3,3.490658419E-4
1.432849437E0,9.948377265E-4,-5.934119690E-4,-5.235987483E-4
1.436851000E0,-6.283185212E-4,1.570796303E-4,-7.504915702E-4
1.440851000E0,-7.330382941E-4,6.283185212E-4,-8.203047328E-4
1.444849437E0,2.443460980E-4,1.745329246E-5,-1.134464052E-3
1.448849437E0,-5.235987483E-4,-4.014257283E-4,-9.075712296E-4
1.452851000E0,-2.216568217E-3,1.099557383E-3,-1.466076588E-3
1.456851000E0,-7.155850180E-4,-1.396263397E-4,-9.948377265E-4
1.460849437E0,-4.712388909E-4,2.617993741E-4,-1.169370604E-3
1.464849437E0,-1.151917269E-3,5.410520826E-4,-6.283185212E-4
1.468851000E0,-4.363323096E-4,2.967059845E-4,-4.886921961E-4
1.472849437E0,-6.981316837E-4,-3.490658492E-5,-1.396263397E-4
1.476849437E0,-3.141592606E-4,0.000000000E0,-6.632251316E-4
1.480849437E0,-3.665191471E-4,1.570796303E-4,-4.886921961E-4
1.484851000E0,-6.806784077E-4,2.094395168E-4,-5.934119690E-4
1.488849437E0,8.726646192E-4,2.094395168E-4,-1.064650831E-3
1.492849437E0,2.268928074E-4,2.094395168E-4,-1.500983140E-3
1.496849437E0,6.981316983E-5,-6.981316983E-5,-1.605702913E-3
1.500851000E0,-4.188790335E-4,0.000000000E0,-2.094394993E-3
1.504849437E0,-2.042035107E-3,4.677482415E-3,-2.670353744E-3
1.508849437E0,-2.775073517E-3,1.378810150E-3,-1.605702913E-3
1.512849437E0,-2.216568217E-3,-6.981316983E-5,-1.640609466E-3
1.516851000E0,-1.605702913E-3,1.483529806E-3,-1.047197497E-3
1.520849437E0,-1.762782573E-3,6.981316837E-4,-1.047197497E-3
1.524849437E0,-1.186823938E-3,-1.291543595E-3,-7.330382941E-4
1.528849437E0,-1.047197497E-3,-3.141592606E-4,-8.028514567E-4
1.532851000E0,-1.605702913E-3,6.806784077E-4,-5.235987483E-4
1.536849437E0,-2.827433404E-3,1.413716702E-3,-6.108652451E-4
1.540849437E0,-5.585053586E-4,-6.981316983E-5,-7.679448463E-4
1.544849437E0,-4.363323096E-4,-2.391101094E-3,-8.203047328E-4
1.548851000E0,-5.410520826E-4,5.759586347E-4,-8.377580671E-4
1.552849437E0,-7.330382941E-4,1.658062800E-3,-8.377580671E-4
1.556849437E0,-1.064650831E-3,-1.396263397E-4,-8.377580671E-4
1.560849437E0,3.141592606E-4,-1.745329209E-4,-5.410520826E-4
1.564849437E0,-6.457717973E-4,-6.283185212E-4,-3.141592606E-4
1.568849437E0,1.780235791E-3,-2.391101094E-3,-5.410520826E-4
1.572849437E0,4.555309191E-3,-1.815142459E-3,-1.204277156E-3
1.576849437E0,4.188790335E-4,-1.570796303E-4,-6.283185212E-4
1.580849437E0,-1.745329246E-5,1.221730490E-4,-6.283185212E-4
1.584849437E0,-2.548180753E-3,-2.059488557E-3,1.047197584E-4
1.588849437E0,-2.460914198E-3,-2.757620299E-3,-5.934119690E-4
1.592851000E0,-1.082104165E-3,-2.059488557E-3,-7.679448463E-4
1.596849437E0,-1.012290944E-3,-5.061454722E-4,-8.203047328E-4
1.600849437E0,-1.919862116E-3,-1.466076588E-3,-8.377580671E-4
1.604849437E0,-1.745329246E-5,-1.710422686E-3,-8.377580671E-4
1.608851000E0,-1.623156248E-3,1.954768784E-3,-1.884955564E-3
1.612851000E0,-8.552113432E-4,-6.632251316E-4,-9.599310579E-4
1.616849437E0,-9.599310579E-4,5.934119690E-4,-8.726646192E-4
1.620849437E0,-2.059488557E-3,-2.617993741E-4,-1.291543595E-3
1.624851000E0,-2.181661548E-3,-5.061454722E-4,-9.599310579E-4
1.628849437E0,-1.308996929E-3,9.250245057E-4,-8.726646192E-4
1.632849437E0,-1.745329246E-5,4.014257283E-4,-1.448623254E-3
1.636849437E0,-4.363323096E-4,-1.745329209E-4,-1.745329238E-3
1.640851000E0,-5.585053586E-4,1.047197584E-4,-6.283185212E-4
1.644849437E0,-7.330382941E-4,6.457717973E-4,-7.853981806E-4
1.648849437E0,-1.082104165E-3,-4.014257283E-4,-6.632251316E-4
1.652849437E0,3.316125658E-4,-3.839724232E-4,-1.396263367E-3
1.656851000E0,-3.490658492E-5,-6.981316983E-5,-5.235987483E-4
1.660849437E0,-4.537856148E-4,-5.934119690E-4,-7.504915702E-4
1.664849437E0,-6.981316837E-4,-1.029744279E-3,-3.665191471E-4
1.668849437E0,-9.250245057E-4,-8.552113432E-4,-1.169370604E-3
1.672851000E0,-9.773843922E-4,-1.850049011E-3,-9.250245057E-4
1.676851000E0,-9.948377265E-4,0.000000000E0,-1.308996929E-3
1.680849437E0,3.490658419E-4,1.570796303E-4,-9.599310579E-4
1.684849437E0,-3.490658492E-5,2.094395168E-4,-8.726646192E-4
1.688851000E0,-4.363323096E-4,-5.235987483E-4,-8.377580671E-4
1.692849437E0,-5.585053586E-4,-1.047197584E-4,-8.377580671E-4
1.696851000E0,-1.326450263E-3,1.221730490E-4,-8.377580671E-4
1.700849437E0,-7.853981806E-4,1.919862116E-4,-8.377580671E-4
1.704851000E0,-1.378810150E-3,2.094395168E-4,-5.410520826E-4
1.708849437E0,8.726646047E-5,2.094395168E-4,4.363323096E-4
1.712849437E0,-7.155850180E-4,6.632251316E-4,-5.061454722E-4
1.716851000E0,-1.221730490E-3,7.853981806E-4,-9.075712296E-4
1.720851000E0,-1.658062800E-3,3.665191471E-4,-8.552113432E-4
1.724849437E0,-7.155850180E-4,-1.745329246E-5,-5.410520826E-4
1.728849437E0,-9.250245057E-4,0.000000000E0,-6.108652451E-4
1.732849437E0,-6.806784077E-4,1.570796303E-4,-7.679448463E-4
1.736849437E0,1.623156248E-3,-6.806784077E-4,-3.665191471E-4
1.740849437E0,-9.075712296E-4,-7.504915702E-4,-7.155850180E-4
1.744849437E0,-1.431170036E-3,7.155850180E-4,-3.490658419E-4
1.748851000E0,-6.457717973E-4,3.490658419E-4,-7.155850180E-4
1.752849437E0,-4.537856148E-4,-3.316125658E-4,-8.028514567E-4
1.756849437E0,-8.552113432E-4,-2.094395168E-4,-5.235987483E-4
1.760849437E0,-2.094395168E-4,4.014257283E-4,-6.108652451E-4
1.764851000E0,-9.424777818E-4,-1.745329246E-5,-7.679448463E-4
1.768851000E0,-1.134464052E-3,1.570796303E-4,-8.203047328E-4
1.772849437E0,3.141592606E-4,2.094395168E-4,-5.410520826E-4
1.776849437E0,-9.599310579E-4,2.094395168E-4,-1.570796303E-4
1.780851000E0,-1.134464052E-3,6.632251316E-4,-6.632251316E-4
1.784849437E0,-1.937315450E-3,3.316125658E-4,-7.853981806E-4
1.788849437E0,-3.490658492E-5,5.410520826E-4,-1.274090377E-3
1.792849437E0,-5.934119690E-4,4.537856148E-4,-9.424777818E-4
1.796851000E0,-4.363323096E-4,-4.537856148E-4,-8.726646192E-4
1.800849437E0,-8.552113432E-4,-1.047197584E-4,-8.377580671E-4
1.804849437E0,-1.413716702E-3,-4.537856148E-4,-8.377580671E-4
1.808849437E0,-1.099557383E-3,1.919862116E-4,-8.377580671E-4
1.812851000E0,-1.029744279E-3,2.094395168E-4,-1.291543595E-3
1.816849437E0,-5.585053586E-4,5.235987483E-4,-2.094395168E-4
1.820849437E0,-1.780235791E-3,4.537856148E-4,-5.235987483E-4
1.824849437E0,-7.504915702E-4,2.792526793E-4,-4.537856148E-4
1.828851000E0,-1.378810150E-3,8.726646047E-5,-2.792526793E-4
1.832849437E0,-3.490658419E-4,3.316125658E-4,-5.410520826E-4
1.836849437E0,-6.806784077E-4,2.443460980E-4,-3.141592606E-4
1.840849437E0,-9.075712296E-4,9.773843922E-4,-2.443460980E-4
1.844851000E0,-1.431170036E-3,1.221730490E-4,-9.773843922E-4
1.848849437E0,-1.099557383E-3,1.919862116E-4,-1.029744279E-3
1.852849437E0,-7.155850180E-4,2.094395168E-4,-5.934119690E-4
1.856849437E0,-7.679448463E-4,-5.235987483E-4,-6.108652451E-4
1.860851000E0,-9.424777818E-4,-1.047197584E-4,-7.853981806E-4
1.864849437E0,-1.274090377E-3,1.221730490E-4,-8.203047328E-4
1.868849437E0,-1.221730490E-3,1.919862116E-4,-8.377580671E-4
1.872852562E0,-1.047197497E-3,1.413716702E-3,-8.377580671E-4
1.876851000E0,-1.012290944E-3,2.268928074E-4,-3.839724232E-4
1.880849437E0,-9.948377265E-4,-5.061454722E-4,-4.188790335E-4
1.884849437E0,-5.410520826E-4,-5.585053586E-4,-5.759586347E-4
1.888849437E0,-8.726646192E-4,-4.188790335E-4,-7.679448463E-4
1.892849437E0,-9.599310579E-4,-2.268928074E-4,-8.203047328E-4
1.896849437E0,-3.839724232E-4,-3.490658492E-5,-8.377580671E-4
1.900849437E0,-3.839724232E-4,1.396263397E-4,-1.134464052E-3
1.904849437E0,-5.410520826E-4,3.490658419E-4,-1.064650831E-3
1.908851000E0,-1.221730490E-4,1.047197584E-4,-8.901178953E-4
1.912849437E0,-1.570796303E-4,1.919862116E-4,-8.552113432E-4
1.916851000E0,-7.853981806E-4,2.094395168E-4,-8.377580671E-4
1.920851000E0,-1.099557383E-3,-3.665191471E-4,-8.726646047E-5
1.924851000E0,-1.326450263E-3,-8.203047328E-4,-4.886921961E-4
1.928849437E0,-1.378810150E-3,-1.919862116E-4,-4.537856148E-4
1.932849437E0,-4.886921961E-4,1.047197584E-4,-5.759586347E-4
1.936851000E0,-1.047197584E-4,3.490658492E-5,-7.679448463E-4
1.940851000E0,-3.473205259E-3,-1.047197584E-4,-6.981316983E-5
1.944849437E0,-7.330382941E-4,4.363323096E-4,-4.886921961E-4
1.948849437E0,-1.518436475E-3,4.188790335E-4,-7.504915702E-4
1.952851000E0,-3.700098023E-3,1.169370604E-3,-8.203047328E-4
1.956849437E0,-3.211405827E-3,7.679448463E-4,-6.981316983E-5
1.960849437E0,-1.570796361E-3,3.665191471E-4,-4.886921961E-4
1.964849437E0,-2.042035107E-3,-1.745329246E-5,-7.504915702E-4
1.968851000E0,-1.710422686E-3,0.000000000E0,-5.061454722E-4
1.972849437E0,-1.221730490E-4,6.108652451E-4,-2.967059845E-4
1.976849437E0,-7.679448463E-4,7.853981806E-4,3.490658492E-5
1.980849437E0,-1.675516134E-3,6.632251316E-4,-4.537856148E-4
1.984851000E0,-7.155850180E-4,-8.552113432E-4,-8.901178953E-4
1.988849437E0,-3.054326167E-3,1.605702913E-3,-9.948377265E-4
1.992849437E0,-1.675516134E-3,8.726646192E-4,-8.726646192E-4
1.996849437E0,-1.221730490E-4,8.726646047E-5,-9.948377265E-4
2.000851000E0,-3.141592606E-4,4.886921961E-4,-2.792526793E-4
2.004849437E0,-1.274090377E-3,5.934119690E-4,-3.839724232E-4
2.008849437E0,-1.518436475E-3,-1.221730490E-4,-8.726646192E-4
2.012849437E0,-1.588249579E-3,-1.570796303E-4,-9.948377265E-4
2.016851000E0,-1.448623254E-3,-1.745329246E-5,1.745329246E-5
2.020851000E0,-1.413716702E-3,-2.792526793E-4,-3.141592606E-4
2.024849437E0,-5.235987919E-5,9.948377265E-4,-8.552113432E-4
2.028849437E0,-2.967059845E-4,4.188790335E-4,-9.948377265E-4
2.032851000E0,-8.203047328E-4,-1.745329246E-5,-8.726646192E-4
2.036849437E0,-1.239183708E-3,-2.792526793E-4,-1.291543595E-3
2.040849437E0,-6.108652451E-4,-5.061454722E-4,-6.632251316E-4
2.044849437E0,-4.363323096E-4,-4.188790335E-4,1.047197584E-4
2.048851000E0,-1.448623254E-3,-2.268928074E-4,-1.396263397E-4
2.052849437E0,5.061454722E-4,-2.583087189E-3,-5.061454722E-4
2.056849437E0,-1.204277156E-3,-2.303834539E-3,-7.504915702E-4
2.060849437E0,9.075712296E-4,0.000000000E0,-8.203047328E-4
2.064851000E0,-1.850049011E-3,4.712388909E-4,-2.268928074E-4
2.068849437E0,-1.204277156E-3,1.605702913E-3,-3.665191471E-4
2.072849437E0,-1.378810150E-3,7.504915702E-4,-5.585053586E-4
2.076849437E0,1.762782573E-3,1.919862116E-4,-9.250245057E-4
2.080851000E0,4.712388909E-4,-2.268928074E-4,-8.552113432E-4
2.084849437E0,-4.537856148E-4,2.513274085E-3,-2.443460980E-4
2.088849437E0,-4.014257283E-4,3.665191471E-4,-6.806784077E-4
2.092851000E0,3.490658419E-4,-1.710422686E-3,-4.886921961E-4
2.096851000E0,-1.919862116E-4,-2.617993741E-4,-1.204277156E-3
2.100849437E0,-3.944444004E-3,1.151917269E-3,-1.378810150E-3
2.104849437E0,-5.375613924E-3,2.967059845E-4,-9.773843922E-4
2.108851000E0,-2.583087189E-3,1.588249579E-3,1.570796303E-4
2.112851000E0,-2.460914198E-3,1.029744279E-3,-2.617993741E-4
2.116849437E0,-7.679448463E-4,-4.537856148E-4,-6.806784077E-4
2.120851000E0,-9.424777818E-4,-2.443460980E-4,-8.028514567E-4
2.124851000E0,-6.981316983E-5,8.726646047E-5,-8.203047328E-4
2.128851000E0,-1.204277156E-3,4.886921961E-4,-5.410520826E-4
2.132849437E0,-7.504915702E-4,-1.343903481E-3,-6.108652451E-4
2.136849437E0,9.948377265E-4,-1.535889693E-3,-3.316125658E-4
2.140851000E0,5.759586347E-4,-9.773843922E-4,-2.443460980E-4
2.144849437E0,-2.792526793E-4,-9.773843922E-4,-6.806784077E-4
2.148849437E0,-1.710422686E-3,2.164208330E-3,-8.028514567E-4
2.152849437E0,1.570796303E-4,8.726646192E-4,-1.274090377E-3
2.156851000E0,-8.726646047E-5,-5.235987919E-5,-5.061454722E-4
2.160849437E0,1.221730490E-4,1.396263397E-4,-1.047197497E-3
2.164849437E0,1.553343027E-3,1.850049011E-3,-1.500983140E-3
2.168849437E0,-7.679448463E-4,-1.448623254E-3,3.490658492E-5
2.172851000E0,-1.553343027E-3,-1.553343027E-3,-2.967059845E-4
2.176849437E0,-1.134464052E-3,-6.806784077E-4,-6.981316837E-4
2.180851000E0,-4.363323096E-4,-1.361356815E-3,-1.099557383E-3
2.184849437E0,-1.308996929E-3,-2.583087189E-3,-7.504915702E-4
2.188851000E0,0.000000000E0,1.151917269E-3,-3.665191471E-4
2.192849437E0,-2.234021435E-3,3.001966281E-3,-1.466076588E-3
2.196851000E0,-5.078908056E-3,2.600540640E-3,-4.014257283E-4
2.200849437E0,-4.171337001E-3,2.949606394E-3,-5.759586347E-4
2.204851000E0,-1.832595677E-3,-1.466076588E-3,-6.108652451E-4
2.208849437E0,-1.815142459E-3,-2.094395168E-4,-1.745329209E-4
2.212849437E0,1.919862116E-3,-1.082104165E-3,-9.599310579E-4
2.216849437E0,2.094395168E-4,1.239183708E-3,-7.155850180E-4
2.220851000E0,8.377580671E-4,1.221730490E-3,-1.256637042E-3
2.224849437E0,-2.094395168E-4,-5.585053586E-4,-6.457717973E-4
2.228849437E0,-3.490658492E-5,-7.330382941E-4,-3.316125658E-4
2.232849437E0,-1.343903481E-3,-1.745329246E-5,-5.585053586E-4
2.236851000E0,-2.443460980E-3,1.570796303E-4,-1.064650831E-3
2.240851000E0,1.221730490E-4,5.061454722E-4,-1.797689125E-3
2.244849437E0,6.457717973E-4,8.726646192E-4,-1.239183708E-3
2.248851000E0,7.679448463E-4,4.014257283E-4,-9.424777818E-4
2.252851000E0,-8.203047328E-4,-6.108652451E-4,-4.188790335E-4
2.256849437E0,-1.850049011E-3,5.934119690E-4,-7.330382941E-4
2.260851000E0,-3.193952609E-3,1.745329209E-4,-8.028514567E-4
2.264851000E0,-5.061454722E-4,8.028514567E-4,-8.203047328E-4
2.268851000E0,-5.585053586E-4,-1.256637042E-3,-8.377580671E-4
2.272849437E0,0.000000000E0,1.221730490E-4,-5.410520826E-4
2.276849437E0,-5.759586347E-4,-4.014257283E-4,-1.064650831E-3
2.280851000E0,-4.363323096E-4,5.235987919E-5,-1.343903481E-3
2.284849437E0,6.283185212E-4,-1.169370604E-3,-5.235987483E-4
2.288849437E0,-2.617993741E-4,-1.029744279E-3,-7.504915702E-4
2.292849437E0,-3.490658419E-4,-6.981316837E-4,-8.203047328E-4
2.296851000E0,5.235987919E-5,-3.141592606E-4,-6.806784077E-4
2.300851000E0,4.712388909E-4,-1.710422686E-3,-9.424777818E-4
2.304849437E0,-4.537856148E-4,-2.792526793E-4,1.745329246E-5
2.308849437E0,-4.014257283E-4,8.377580671E-4,-9.075712296E-4
2.312851000E0,-5.410520826E-4,9.948377265E-4,-7.155850180E-4
2.316849437E0,-1.169370604E-3,-1.745329246E-5,-6.457717973E-4
2.320849437E0,-1.047197497E-3,-2.792526793E-4,-7.853981806E-4
2.324849437E0,-1.605702913E-3,1.134464052E-3,-1.727875904E-3
2.328851000E0,-8.726646192E-4,3.473205259E-3,-1.518436475E-3
2.332849437E0,-1.919862116E-4,-2.792526793E-4,-1.308996929E-3
2.336851000E0,-4.886921961E-4,8.726646047E-5,-1.570796361E-3
2.340849437E0,-1.047197584E-4,-1.291543595E-3,-1.029744279E-3
2.344851000E0,-1.972222002E-3,-2.583087189E-3,-1.029744279E-3
2.348849437E0,-4.555309191E-3,-2.094395168E-4,-5.759586347E-4
2.352849437E0,-4.188789986E-3,2.967059612E-3,-9.250245057E-4
2.356849437E0,-6.283185212E-4,1.692969352E-3,-8.552113432E-4
2.360851000E0,-2.391101094E-3,-1.797689125E-3,-3.839724232E-4
2.364851000E0,-1.675516134E-3,8.901178953E-4,-7.155850180E-4
2.368849437E0,-1.623156248E-3,2.443460980E-4,-8.028514567E-4
2.372849437E0,-1.151917269E-3,2.321287990E-3,-1.134464052E-3
2.376851000E0,3.595378250E-3,-1.029744279E-3,-9.075712296E-4
2.380849437E0,1.256637042E-3,-2.042035107E-3,-1.012290944E-3
2.384851000E0,-5.585053586E-4,-5.061454722E-4,-8.726646192E-4
2.388849437E0,-1.640609466E-3,-2.652900526E-3,-8.552113432E-4
2.392851000E0,1.239183708E-3,-3.839724232E-4,-8.377580671E-4
2.396849437E0,2.565633971E-3,1.867502346E-3,-1.745329238E-3
2.400851000E0,5.235987483E-4,9.599310579E-4,-1.064650831E-3
2.404849437E0,-2.094394993E-3,6.981316837E-4,-8.901178953E-4
2.408851000E0,-2.338741207E-3,9.599310579E-4,-1.308996929E-3
2.412849437E0,-5.934119690E-4,7.155850180E-4,-1.867502346E-3
2.416849437E0,-1.797689125E-3,-2.443460980E-4,-1.099557383E-3
2.420851000E0,-6.108652451E-4,-3.490658492E-5,-9.075712296E-4
2.424851000E0,1.396263397E-4,-2.967059845E-4,-5.585053586E-4
2.428849437E0,-5.410520826E-4,-1.919862116E-4,-9.075712296E-4
2.432849437E0,-8.726646192E-4,-3.490658492E-5,-1.012290944E-3
2.436851000E0,-2.617993858E-3,-1.396263397E-4,-5.759586347E-4
2.440851000E0,2.617993858E-3,-3.787364578E-3,-9.250245057E-4
2.444849437E0,-3.368485486E-3,-3.490658419E-4,-1.047197584E-4
2.448849437E0,-1.605702913E-3,-2.268928074E-4,-6.457717973E-4
2.452851000E0,-6.981316837E-4,6.981316837E-4,-1.535889693E-3
2.456851000E0,-9.250245057E-4,1.919862116E-4,-1.169370604E-3
2.460849437E0,-3.071779385E-3,2.303834539E-3,-1.675516134E-3
2.464849437E0,-1.239183708E-3,-1.047197584E-4,-1.204277156E-3
2.468851000E0,4.485496320E-3,5.759586347E-4,-1.535889693E-3
2.472849437E0,-3.141592606E-4,-4.625122529E-3,-1.326450263E-3
2.476849437E0,-9.599310579E-4,4.363323096E-4,-1.413716702E-3
2.480851000E0,1.710422686E-3,-5.113814492E-3,-8.377580671E-4
2.484851000E0,0.000000000E0,-2.373647876E-3,-5.410520826E-4
2.488849437E0,-1.221730490E-4,-2.705260413E-3,-4.537856148E-4
2.492849437E0,-9.250245057E-4,-9.773843922E-4,-5.934119690E-4
2.496849437E0,-3.839724232E-4,6.457717973E-4,-1.064650831E-3
2.500851000E0,-1.588249579E-3,-2.443460980E-4,-1.047197497E-3
2.504849437E0,-1.151917269E-3,-1.919862116E-4,-8.901178953E-4
2.508851000E0,-4.363323096E-4,-1.378810150E-3,-5.585053586E-4
2.512851000E0,-4.014257283E-4,-4.886921961E-4,-1.064650831E-3
2.516851000E0,-3.839724232E-4,-1.169370604E-3,-8.901178953E-4
2.520851000E0,-8.377580671E-4,-2.792526793E-4,-8.552113432E-4
2.524851000E0,-6.457717973E-4,8.726646047E-5,-1.134464052E-3
2.528851000E0,-7.504915702E-4,1.919862116E-4,-1.064650831E-3
2.532851000E0,-6.283185212E-4,-2.268928074E-4,-8.901178953E-4
2.536851000E0,-7.504915702E-4,5.585053586E-4,-1.012290944E-3
2.540851000E0,-4.712388909E-4,0.000000000E0,-1.029744279E-3
2.544851000E0,-1.308996929E-3,-2.792526793E-4,-1.029744279E-3
2.548851000E0,-1.745329209E-4,-6.457717973E-4,-4.363323096E-4
2.552851000E0,-1.745329246E-5,1.221730490E-4,-7.330382941E-4
2.556851000E0,0.000000000E0,1.256637042E-3,-1.117010717E-3
2.560851000E0,-7.330382941E-4,-1.308996929E-3,-1.518436475E-3
2.564851000E0,-2.879793290E-3,-4.712388909E-4,-4.188790335E-4
2.568849437E0,-3.298672382E-3,-5.410520826E-4,-1.221730490E-4
2.572851000E0,-6.806784077E-4,-5.759586347E-4,-5.235987919E-5
2.576849437E0,-1.361356815E-3,-8.726646192E-4,-3.316125658E-4
2.580851000E0,-6.457717973E-4,-2.094395168E-4,-6.981316837E-4
2.584849437E0,-9.075712296E-4,2.617993741E-4,-9.424777818E-4
2.588849437E0,-1.274090377E-3,2.268928074E-4,-1.012290944E-3
2.592851000E0,-9.250245057E-4,6.806784077E-4,-8.901178953E-4
2.596851000E0,-8.203047328E-4,3.316125658E-4,-1.047197584E-4
2.600849437E0,3.246312495E-3,2.042035107E-3,-1.082104165E-3
2.604849437E0,-1.867502346E-3,-6.108652451E-4,-1.204277156E-3
2.608851000E0,1.396263397E-4,-1.658062800E-3,-9.250245057E-4
2.612851000E0,3.490658492E-5,-4.014257283E-4,-8.552113432E-4
2.616851000E0,-1.169370604E-3,2.094395168E-4,-8.377580671E-4
2.620849437E0,8.901178953E-4,-2.164208330E-3,-5.410520826E-4
2.624851000E0,1.308996929E-3,-1.762782573E-3,-6.108652451E-4
2.628849437E0,-8.726646047E-5,-5.759586347E-4,-3.316125658E-4
2.632849437E0,7.330382941E-4,-1.221730490E-4,-4.014257283E-4
2.636849437E0,3.316125658E-4,1.221730490E-4,-5.759586347E-4
2.640851000E0,-1.919862116E-4,1.919862116E-4,-1.221730490E-3
2.644849437E0,-4.886921961E-4,-2.268928074E-4,-9.424777818E-4
2.648849437E0,-7.155850180E-4,1.047197584E-4,-1.169370604E-3
2.652849437E0,-9.250245057E-4,1.082104165E-3,-1.064650831E-3
2.656851000E0,-9.773843922E-4,1.500983140E-3,-1.204277156E-3
2.660849437E0,-5.410520826E-4,-3.316125658E-4,-3.316125658E-4
2.664849437E0,-3.281218931E-3,5.235987483E-4,-2.443460980E-4
2.668849437E0,-1.274090377E-3,1.396263397E-4,-2.268928074E-4
2.672851000E0,-3.508111695E-3,2.094395168E-4,-6.981316983E-5
2.676849437E0,-2.094394993E-3,-2.268928074E-4,-6.457717973E-4
2.680851000E0,-2.967059612E-3,-2.129301662E-3,-7.853981806E-4
2.684849437E0,2.111848444E-3,-4.747295752E-3,-1.274090377E-3
2.688851000E0,1.466076588E-3,-2.286381321E-3,-9.424777818E-4
2.692849437E0,3.839724232E-4,-2.617993741E-4,-8.726646192E-4
2.696849437E0,-1.692969352E-3,-1.099557383E-3,3.490658492E-5
2.700849437E0,1.745329246E-5,-2.617993741E-4,-6.108652451E-4
2.704851000E0,-7.330382941E-4,3.839724232E-4,-7.679448463E-4
2.708849437E0,-1.221730490E-3,5.759586347E-4,-8.203047328E-4
2.712849437E0,-1.204277156E-3,6.108652451E-4,-8.377580671E-4
2.716849437E0,-4.537856148E-4,1.745329246E-5,-8.377580671E-4
2.720851000E0,-8.726646047E-5,1.745329246E-5,-5.410520826E-4
2.724849437E0,-7.679448463E-4,1.570796303E-4,-6.108652451E-4
2.728849437E0,-3.490658492E-5,2.094395168E-4,-7.679448463E-4
2.732849437E0,-7.504915702E-4,-6.981316983E-5,-8.203047328E-4
2.736851000E0,-4.712388909E-4,8.901178953E-4,-8.377580671E-4
2.740849437E0,-4.014257283E-4,-4.886921961E-4,-8.377580671E-4
2.744849437E0,-8.726646047E-5,1.082104165E-3,-8.377580671E-4
2.748849437E0,-6.108652451E-4,0.000000000E0,-8.377580671E-4
2.752849437E0,-8.901178953E-4,-4.363323096E-4,-1.134464052E-3
2.756849437E0,-5.235987483E-4,3.490658419E-4,-1.518436475E-3
2.760851000E0,-1.012290944E-3,1.308996929E-3,-1.012290944E-3
2.764851000E0,-1.308996929E-3,8.028514567E-4,-5.759586347E-4
2.768851000E0,-9.250245057E-4,3.665191471E-4,-6.108652451E-4
2.772851000E0,-2.268928074E-4,-1.745329246E-5,-7.853981806E-4
2.776849437E0,-1.099557383E-3,9.075712296E-4,-8.203047328E-4
2.780851000E0,-1.169370604E-3,2.443460980E-4,-1.134464052E-3
2.784851000E0,-1.186823938E-3,2.268928074E-4,-4.712388909E-4
2.788849437E0,-4.363323096E-4,-3.665191471E-4,0.000000000E0
2.792849437E0,-2.216568217E-3,2.094395168E-4,-6.108652451E-4
2.796851000E0,-6.981316837E-4,-6.632251316E-4,-4.712388909E-4
2.800849437E0,2.617993741E-4,-1.570796303E-4,-5.934119690E-4
2.804849437E0,-5.061454722E-4,5.759586347E-4,-9.250245057E-4
2.808849437E0,-7.330382941E-4,1.815142459E-3,-8.552113432E-4
2.812851000E0,7.155850180E-4,-2.059488557E-3,-8.377580671E-4
2.816849437E0,1.919862116E-4,5.235987483E-4,-1.134464052E-3
2.820849437E0,-1.274090377E-3,2.967059845E-4,-9.075712296E-4
2.824849437E0,-3.141592606E-4,-1.553343027E-3,-8.552113432E-4
2.828851000E0,-2.321287990E-3,8.028514567E-4,-1.134464052E-3
2.832849437E0,-1.343903481E-3,1.291543595E-3,-6.108652451E-4
2.836849437E0,-1.082104165E-3,1.099557383E-3,-7.853981806E-4
2.840849437E0,-5.585053586E-4,4.537856148E-4,-8.203047328E-4
2.844851000E0,-8.901178953E-4,2.792526793E-4,-3.839724232E-4
2.848851000E0,-2.094395168E-4,1.134464052E-3,-7.155850180E-4
2.852849437E0,-6.457717973E-4,4.537856148E-4,-8.028514567E-4
2.856849437E0,5.759586347E-4,-1.954768784E-3,-5.235987483E-4
2.860851000E0,-8.726646192E-4,1.047197584E-4,-2.967059845E-4
2.864849437E0,-1.256637042E-3,-2.617993741E-4,-5.410520826E-4
2.868849437E0,-1.064650831E-3,8.726646047E-5,-4.537856148E-4
2.872849437E0,1.745329246E-5,-2.443460980E-4,-5.934119690E-4
2.876851000E0,1.221730490E-3,-3.351032268E-3,2.617993741E-4
2.880849437E0,-1.780235791E-3,-2.216568217E-3,-2.443460980E-4
2.884849437E0,1.186823938E-3,1.099557383E-3,-2.268928074E-4
2.888849437E0,1.745329246E-5,2.967059845E-4,-6.806784077E-4
2.892849437E0,-1.483529806E-3,2.443460980E-4,-1.692969352E-3
2.896849437E0,-1.884955564E-3,2.268928074E-4,-1.064650831E-3
2.900849437E0,-6.108652451E-4,2.268928074E-4,-8.901178953E-4
2.904849437E0,-1.640609466E-3,2.268928074E-4,-6.981316837E-4
2.908849437E0,-1.012290944E-3,2.094395168E-4,-9.599310579E-4
2.912849437E0,-8.552113432E-4,1.117010717E-3,-8.726646192E-4
2.916849437E0,1.431170036E-3,2.268928103E-3,-8.377580671E-4
2.920851000E0,1.745329238E-3,-7.330382941E-4,-8.377580671E-4
2.924851000E0,6.108652451E-4,1.762782573E-3,-1.291543595E-3
2.928849437E0,-1.483529806E-3,-6.981316837E-4,-9.599310579E-4
2.932849437E0,-1.570796361E-3,2.513274085E-3,-8.726646192E-4
2.936851000E0,3.490658492E-5,5.061454722E-4,3.490658492E-5
2.940851000E0,1.675516134E-3,-2.234021435E-3,-6.108652451E-4
2.944849437E0,-2.967059845E-4,-1.308996929E-3,-1.221730490E-3
2.948849437E0,-3.490658419E-4,-1.745329209E-4,-9.424777818E-4
2.952851000E0,1.553343027E-3,-1.361356815E-3,-4.188790335E-4
2.956851000E0,5.585053586E-4,8.726646192E-4,-1.623156248E-3
2.960849437E0,4.712388909E-4,1.867502346E-3,-1.047197497E-3
2.964849437E0,-9.250245057E-4,9.599310579E-4,-5.934119690E-4
2.968851000E0,-6.806784077E-4,4.014257283E-4,-1.745329209E-4
2.972851000E0,-1.204277156E-3,-1.745329209E-4,-9.599310579E-4
2.976849437E0,-1.658062800E-3,1.221730490E-4,-7.155850180E-4
2.980849437E0,-8.726646192E-4,1.919862116E-4,-1.099557383E-3
2.984851000E0,-6.632251316E-4,6.632251316E-4,-6.108652451E-4
2.988849437E0,2.792526793E-4,-1.047197584E-4,-3.316125658E-4
2.992849437E0,-9.599310579E-4,1.221730490E-4,-2.443460980E-4
2.996849437E0,-5.410520826E-4,4.886921961E-4,-5.235987483E-4
3.000851000E0,-1.169370604E-3,1.396263397E-4,-7.504915702E-4
3.004851000E0,-8.901178953E-4,5.235987919E-5,-5.235987483E-4
3.008851000E0,6.981316983E-5,-4.014257283E-4,-2.967059845E-4
3.012849437E0,7.853981806E-4,3.490658492E-5,-5.410520826E-4
3.016851000E0,-2.443460980E-4,-2.199114766E-3,-7.679448463E-4
3.020849437E0,5.410520826E-4,-1.308996929E-3,-6.632251316E-4
3.024851000E0,1.047197497E-3,-2.862340072E-3,-4.886921961E-4
3.028849437E0,0.000000000E0,-2.792526793E-4,-7.504915702E-4
3.032851000E0,-8.901178953E-4,-6.457717973E-4,-3.665191471E-4
3.036849437E0,-8.203047328E-4,-1.396263397E-4,-4.188790335E-4
3.040849437E0,-5.235987919E-5,-1.570796303E-4,-5.759586347E-4
3.044849437E0,-1.396263397E-4,-3.141592606E-4,-7.679448463E-4
3.048851000E0,-1.745329246E-5,-6.981316983E-5,-5.235987483E-4
3.052849437E0,1.396263397E-4,1.396263397E-4,-1.570796303E-4
3.056851000E0,-5.410520826E-4,1.919862116E-4,-6.632251316E-4
3.060849437E0,-2.792526793E-4,2.094395168E-4,-6.457717973E-4
3.064851000E0,-8.028514567E-4,2.094395168E-4,-1.396263367E-3
3.068849437E0,-1.099557383E-3,-2.094395168E-4,-1.274090377E-3
3.072851000E0,-1.029744279E-3,1.047197584E-4,-8.028514567E-4
3.076849437E0,-9.948377265E-4,-2.443460980E-4,-6.806784077E-4
3.080849437E0,-2.059488557E-3,8.726646047E-5,-3.490658492E-5
3.084849437E0,-9.599310579E-4,1.919862116E-4,-4.712388909E-4
3.088849437E0,-8.377580671E-4,-2.268928074E-4,-7.504915702E-4
3.092851000E0,-5.061454722E-4,1.047197584E-4,-3.665191471E-4
3.096849437E0,-2.617993741E-4,3.316125658E-4,-7.155850180E-4
3.100849437E0,-3.490658419E-4,1.047197584E-4,-8.028514567E-4
3.104849437E0,-3.839724232E-4,6.457717973E-4,-8.203047328E-4
3.108851000E0,-8.377580671E-4,-5.585053586E-4,-8.377580671E-4
3.112851000E0,-3.490658419E-4,1.745329246E-5,-8.377580671E-4
3.116849437E0,2.094395168E-4,1.570796303E-4,-5.410520826E-4
3.120849437E0,-5.235987483E-4,2.094395168E-4,-6.108652451E-4
3.124851000E0,-8.726646192E-4,2.094395168E-4,-7.679448463E-4
3.128849437E0,-9.599310579E-4,-6.981316983E-5,-8.203047328E-4
3.132849437E0,-9.948377265E-4,2.792526793E-4,-1.134464052E-3
3.136849437E0,-1.902408898E-3,5.410520826E-4,-1.064650831E-3
3.140851000E0,-1.378810150E-3,-1.221730490E-4,-1.396263397E-4
3.144849437E0,-3.490658492E-5,2.617993741E-4,-5.061454722E-4
3.148849437E0,1.396263397E-4,-1.867502346E-3,-7.504915702E-4
3.152849437E0,-2.844886621E-3,9.599310579E-4,0.000000000E0
3.156851000E0,-1.692969352E-3,1.431170036E-3,5.585053586E-4
3.160849437E0,-1.535889693E-3,1.919862116E-4,7.155850180E-4
3.164849437E0,-1.954768784E-3,6.108652451E-4,7.679448463E-4
3.168849437E0,2.129301662E-3,-2.565633971E-3,6.108652451E-4
3.172851000E0,-2.199114766E-3,5.235987919E-5,5.759586347E-4
3.176851000E0,-3.333578818E-3,2.792526793E-4,-4.537856148E-4
3.180849437E0,-1.972222002E-3,2.740166849E-3,-5.934119690E-4
3.184849437E0,-1.012290944E-3,8.377580671E-4,-1.745329246E-5
3.188851000E0,-3.141592606E-4,-1.047197584E-4,-4.712388909E-4
3.192849437E0,-5.934119690E-4,-5.235987919E-5,-1.396263397E-4
3.196849437E0,-8.028514567E-4,-9.424777818E-4,-5.235987919E-5
3.200849437E0,1.745329246E-5,-1.047197584E-4,-4.886921961E-4
3.204851000E0,-6.457717973E-4,8.726646047E-5,-1.396263397E-4
3.208849437E0,-8.203047328E-4,4.363323096E-4,-5.235987919E-5
3.212849437E0,4.712388909E-4,3.839724232E-4,2.443460980E-4
3.216849437E0,1.553343027E-3,-2.775073517E-3,1.919862116E-4
3.220851000E0,2.617993858E-3,-7.504915702E-4,6.108652451E-4
3.224849437E0,4.712388909E-4,-6.981316983E-5,4.363323096E-4
3.228851000E0,1.256637042E-3,2.513274085E-3,-3.490658419E-4
3.232849437E0,2.513274085E-3,7.679448463E-4,-4.014257283E-4
3.236851000E0,1.658062800E-3,-5.759586347E-4,-2.792526793E-4
3.240849437E0,3.665191471E-4,4.188790335E-4,-8.726646047E-5
3.244849437E0,-2.617993741E-4,8.377580671E-4,4.014257283E-4
3.248849437E0,-7.155850180E-4,3.490658492E-5,6.981316983E-5
3.252849437E0,-6.981316837E-4,1.221730490E-4,-4.537856148E-4
3.256849437E0,2.094395168E-4,4.537856148E-4,-1.396263397E-4
3.260849437E0,0.000000000E0,3.839724232E-4,-3.490658419E-4
3.264851000E0,-1.919862116E-4,2.094395168E-4,1.745329246E-5
3.268851000E0,3.490658492E-5,1.745329209E-4,8.726646192E-4
3.272851000E0,2.443460980E-4,4.537856148E-4,3.490658419E-4
3.276849437E0,-1.186823938E-3,-3.490658419E-4,5.061454722E-4
3.280851000E0,-9.599310579E-4,3.316125658E-4,1.047197584E-4
3.284849437E0,-6.108652451E-4,5.061454722E-4,-2.792526793E-4
3.288849437E0,-6.632251316E-4,1.047197584E-4,-2.443460980E-4
3.292849437E0,-3.839724232E-3,-7.330382941E-4,-2.268928074E-4
3.296851000E0,5.934119690E-4,-8.377580671E-4,5.235987919E-5
3.300851000E0,-4.886921961E-4,3.665191471E-4,4.363323096E-4
3.304849437E0,6.981316837E-4,-9.773843922E-4,-1.919862116E-4
3.308849437E0,-4.537856148E-4,0.000000000E0,-5.235987483E-4
3.312851000E0,-4.712388909E-4,8.726646192E-4,2.792526793E-4
3.316851000E0,7.155850180E-4,8.028514567E-4,8.028514567E-4
3.320849437E0,-3.141592606E-4,7.679448463E-4,6.283185212E-4
3.324849437E0,-3.577925032E-3,0.000000000E0,1.396263397E-4
3.328851000E0,-2.478367416E-3,-7.853981806E-4,-2.792526793E-4
3.332849437E0,-2.670353744E-3,3.839724232E-4,4.886921961E-4
3.336849437E0,-5.934119690E-4,6.981316983E-5,-4.886921961E-4
3.340849437E0,1.588249579E-3,-5.934119690E-4,-2.967059845E-4
3.344851000E0,1.919862116E-4,-6.283185212E-4,-8.726646047E-5
3.348849437E0,5.934119690E-4,-3.316125658E-4,-3.490658419E-4
3.352849437E0,3.839724232E-4,-4.014257283E-4,-2.617993741E-4
3.356849437E0,-1.745329238E-3,9.075712296E-4,-5.410520826E-4
3.360851000E0,-2.478367416E-3,-1.291543595E-3,-1.570796303E-4
3.364851000E0,5.235987919E-5,-2.094395168E-4,-5.235987919E-5
3.368849437E0,-1.919862116E-4,-5.235987483E-4,6.981316837E-4
3.372849437E0,-2.652900526E-3,7.155850180E-4,2.967059845E-4
3.376851000E0,-1.570796303E-4,1.221730490E-3,5.235987919E-5
3.380849437E0,-2.443460980E-4,1.343903481E-3,0.000000000E0
3.384849437E0,-2.268928074E-4,-1.396263397E-4,2.617993741E-4
3.388849437E0,-2.617993741E-4,-2.094395168E-4,1.919862116E-4
3.392849437E0,-7.330382941E-4,6.981316983E-5,-5.759586347E-4
3.396849437E0,-2.356194425E-3,1.937315450E-3,-3.141592606E-4
3.400851000E0,-5.061454722E-4,1.221730490E-3,-6.981316837E-4
3.404849437E0,-1.535889693E-3,2.391101094E-3,6.806784077E-4
3.408851000E0,1.623156248E-3,1.396263397E-4,-4.363323096E-4
3.412849437E0,8.203047328E-4,-5.759586347E-4,-4.363323096E-4
3.416849437E0,4.537856148E-4,-1.692969352E-3,2.967059845E-4
3.420851000E0,-2.181661548E-3,-4.049163777E-3,6.457717973E-4
3.424851000E0,5.759586347E-4,-2.460914198E-3,0.000000000E0
3.428849437E0,2.024581889E-3,-4.729842301E-3,-1.745329246E-5
3.432849437E0,6.108652451E-4,-1.099557383E-3,2.617993741E-4
3.436851000E0,2.443460980E-4,-4.537856148E-4,1.919862116E-4
3.440849437E0,1.570796303E-4,-1.396263397E-4,3.141592606E-4
3.444849437E0,-3.141592606E-4,9.773843922E-4,2.094395168E-4
3.448849437E0,0.000000000E0,3.665191471E-4,1.745329209E-4
3.452851000E0,3.839724232E-4,-6.806784077E-4,-1.221730490E-4
3.456849437E0,-8.726646047E-5,-5.235987919E-5,3.839724232E-4
3.460849437E0,-2.268928074E-4,-3.316125658E-4,-3.665191471E-4
3.464849437E0,1.745329246E-5,3.490658492E-5,-5.585053586E-4
3.468851000E0,-6.457717973E-4,-1.570796303E-4,5.759586347E-4
3.472849437E0,-6.806784077E-4,-5.235987483E-4,2.617993741E-4
3.476855687E0,-3.089232836E-3,0.000000000E0,3.316125658E-4
3.480849437E0,-6.981316837E-4,1.012290944E-3,6.632251316E-4
3.484851000E0,-1.291543595E-3,2.268928074E-4,-1.396263397E-4
3.488851000E0,-2.199114766E-3,3.490658492E-5,-2.094395168E-4
3.492849437E0,-3.141592606E-4,5.759586347E-4,-3.665191471E-4
3.496849437E0,6.108652451E-4,2.792526793E-4,-2.617993741E-4
3.500851000E0,5.410520826E-4,-1.047197584E-4,-8.726646047E-5
3.504849437E0,-1.256637042E-3,-4.886921961E-4,-3.490658492E-5
3.508849437E0,-8.203047328E-4,-4.537856148E-4,4.014257283E-4
3.512849437E0,4.712388909E-4,-1.396263397E-4,6.981316983E-5
3.516851000E0,-6.981316983E-5,-5.235987919E-5,0.000000000E0
3.520849437E0,-6.981316983E-5,-4.886921961E-4,-4.712388909E-4
3.524849437E0,-3.665191471E-4,-4.537856148E-4,-1.396263397E-4
3.528849437E0,-2.967059845E-4,-4.363323096E-4,-8.028514567E-4
3.532851000E0,1.640609466E-3,-1.937315450E-3,-3.839724232E-4
3.536849437E0,8.377580671E-4,6.806784077E-4,-1.012290944E-3
3.540851000E0,3.141592606E-4,-1.396263397E-4,-2.792526793E-4
3.544849437E0,2.268928103E-3,-1.570796361E-3,1.919862116E-4
3.548851000E0,2.338741207E-3,-7.330382941E-4,-2.617993741E-4
3.552849437E0,-3.508111695E-3,1.396263367E-3,-8.726646047E-5
3.556851000E0,1.431170036E-3,1.099557383E-3,-3.490658492E-5
3.560849437E0,1.570796303E-4,6.981316837E-4,-3.490658492E-5
3.564851000E0,-1.954768784E-3,0.000000000E0,-1.745329246E-5
3.568851000E0,6.283185212E-4,-1.919862116E-4,-1.745329246E-5
3.572849437E0,-8.028514567E-4,-3.490658419E-4,4.188790335E-4
3.576852562E0,-1.047197584E-4,-2.617993741E-4,3.839724232E-4
3.580849437E0,-2.321287990E-3,-8.377580671E-4,6.981316983E-5
3.584849437E0,-1.692969352E-3,-8.726646192E-4,-2.967059845E-4
3.588849437E0,-5.061454722E-4,4.118977115E-3,-6.981316837E-4
3.592851000E0,-1.919862116E-4,1.396263397E-4,-1.396263367E-3
3.596851000E0,-1.605702913E-3,1.361356815E-3,-1.291543595E-3
3.600849437E0,-1.745329246E-5,4.712388909E-4,-5.235987919E-5
3.604849437E0,-5.061454722E-4,-3.490658492E-5,4.014257283E-4
3.608851000E0,-3.316125658E-4,-3.490658492E-5,2.268928074E-4
3.612849437E0,-1.396263397E-4,2.199114766E-3,-2.617993741E-4
3.616849437E0,-1.134464052E-3,1.448623254E-3,-2.443460980E-4
3.620849437E0,-3.961897455E-3,1.396263367E-3,-8.726646047E-5
3.624851000E0,-1.832595677E-3,3.490658492E-5,-3.316125658E-4
3.628849437E0,3.490658419E-4,-9.075712296E-4,-7.155850180E-4
3.632849437E0,-1.745329238E-3,-1.919862116E-3,8.726646047E-5
3.636849437E0,-5.934119225E-3,-5.235987919E-5,8.901178953E-4
3.640851000E0,-1.291543595E-3,-9.424777818E-4,3.490658419E-4
3.644849437E0,6.457717973E-4,-1.780235791E-3,-2.268928074E-4
3.648849437E0,4.031710327E-3,-1.239183708E-3,-6.806784077E-4
3.652849437E0,2.181661548E-3,8.726646047E-5,-1.919862116E-4
3.656851000E0,6.632251316E-4,-1.047197497E-3,-6.981316983E-5
3.660849437E0,4.014257283E-4,-4.537856148E-4,-3.490658492E-5
3.664849437E0,9.424777818E-4,-8.901178953E-4,-3.490658492E-5
3.668849437E0,1.082104165E-3,-1.047197584E-4,-3.316125658E-4
3.672851000E0,1.274090377E-3,-1.396263367E-3,-6.981316837E-4
3.676849437E0,8.726646192E-4,-5.410520826E-4,5.410520826E-4
3.680849437E0,1.745329246E-5,-1.745329246E-5,2.617993741E-4
3.684849437E0,-3.490658419E-4,1.047197584E-4,3.490658492E-5
3.688851000E0,-1.204277156E-3,7.504915702E-4,2.792526793E-4
3.692849437E0,-2.094395168E-4,1.570796303E-4,1.919862116E-4
3.696849437E0,6.283185212E-4,-1.221730490E-4,-2.617993741E-4
3.700849437E0,-4.886921961E-4,-5.061454722E-4,5.235987919E-5
3.704851000E0,1.047197584E-4,4.363323096E-4,1.029744279E-3
3.708849437E0,-1.745329246E-5,2.268928074E-4,2.443460980E-4
3.712849437E0,-1.117010717E-3,4.712388909E-4,3.490658492E-5
3.716849437E0,-9.424777818E-4,4.014257283E-4,4.363323096E-4
3.720851000E0,-4.537856148E-4,2.268928074E-4,8.726646047E-5
3.724849437E0,-3.141592606E-4,1.745329209E-4,-4.363323096E-4
3.728851000E0,-3.001966281E-3,-1.169370604E-3,5.934119690E-4
3.732849437E0,1.099557383E-3,-4.712388909E-4,2.792526793E-4
3.736851000E0,9.948377265E-4,-1.396263397E-4,-2.443460980E-4
3.740849437E0,-6.981316837E-4,-6.632251316E-4,5.235987919E-5
3.744849437E0,-3.839724232E-4,2.181661548E-3,-1.396263397E-4
3.748849437E0,-3.630284918E-3,2.792526735E-3,-2.094395168E-4
3.752851000E0,-5.410520826E-4,2.443460980E-4,-3.665191471E-4
3.756851000E0,4.153883550E-3,1.082104165E-3,1.745329209E-4
3.760849437E0,-1.082104165E-3,-1.518436475E-3,9.250245057E-4
3.764851000E0,-3.473205259E-3,1.675516134E-3,5.061454722E-4
3.768849437E0,-1.274090377E-3,-2.146754880E-3,2.617993741E-4
3.772849437E0,5.235987919E-5,-7.330382941E-4,3.490658492E-5
3.776849437E0,-1.256637042E-3,-1.710422686E-3,4.363323096E-4
3.780851000E0,-1.884955564E-3,-1.797689125E-3,3.839724232E-4
3.784851000E0,-5.235987483E-4,-2.478367416E-3,2.268928074E-4
3.788849437E0,1.047197584E-4,-6.632251316E-4,3.490658492E-5
3.792849437E0,-1.745329209E-4,-3.490658492E-5,-4.537856148E-4
3.796851000E0,-6.981316837E-4,1.047197584E-4,-1.396263397E-4
3.800851000E0,5.235987919E-5,1.396263397E-4,-8.028514567E-4
3.804849437E0,-8.028514567E-4,5.934119690E-4,-3.839724232E-4
3.808849437E0,-1.326450263E-3,4.049163777E-3,4.712388909E-4
3.812851000E0,-2.652900526E-3,1.937315450E-3,-3.490658492E-5
3.816849437E0,-4.188790335E-4,3.141592606E-4,-3.490658492E-5
3.820849437E0,-6.108652451E-4,5.235987919E-5,-1.745329246E-5
3.824849437E0,2.268928074E-4,-7.504915702E-4,-1.745329246E-5
3.828851000E0,2.967059845E-4,-6.632251316E-4,4.188790335E-4
3.832849437E0,1.745329246E-5,-3.490658419E-4,6.981316983E-5
3.836849437E0,-6.457717973E-4,-2.617993741E-4,0.000000000E0
3.840849437E0,-3.508111695E-3,2.740166849E-3,1.221730490E-4
3.844851000E0,-2.495820867E-3,-5.148721393E-3,1.064650831E-3
3.848851000E0,1.850049011E-3,-4.241149873E-3,-3.490658492E-5
3.852849437E0,2.617993741E-4,-1.117010717E-3,-3.490658492E-5
3.856849437E0,7.504915702E-4,-6.108652451E-4,2.617993741E-4
3.860851000E0,2.792526793E-4,2.617993741E-4,1.099557383E-3
3.864849437E0,4.712388909E-4,3.316125658E-4,-3.490658492E-5
3.868849437E0,-6.981316983E-5,-6.981316983E-5,-1.745329209E-4
3.872849437E0,-6.806784077E-4,-3.490658492E-5,2.268928074E-4
3.876857250E0,5.235987919E-5,1.047197584E-4,1.745329209E-4
3.880849437E0,-1.745329209E-4,-1.396263397E-4,1.745329246E-5
3.884851000E0,-2.443460980E-4,-5.235987919E-5,-1.745329246E-5
3.888849437E0,-2.617993741E-4,-1.919862116E-4,-1.745329246E-5
3.892849437E0,-2.792526793E-4,3.665191471E-4,-1.745329246E-5
3.896851000E0,1.570796303E-4,2.094395168E-4,-4.712388909E-4
3.900849437E0,-1.570796303E-4,-5.585053586E-4,-1.396263397E-4
3.904849437E0,4.886921961E-4,-6.283185212E-4,-5.235987919E-5
3.908851000E0,6.981316983E-5,-3.490658492E-5,-3.490658492E-5
3.912849437E0,5.585053586E-4,-3.316125658E-4,-4.712388909E-4
3.916849437E0,5.410520826E-4,4.712388909E-4,-1.396263397E-4
3.920849437E0,1.570796361E-3,2.443460980E-4,-9.599310579E-4
3.924849437E0,-3.403391922E-3,3.647738136E-3,-7.155850180E-4
3.928849437E0,-4.712388909E-4,0.000000000E0,-2.094395168E-4
3.932849437E0,-9.250245057E-4,-1.745329246E-5,-6.981316983E-5
3.936851000E0,-3.438298590E-3,1.623156248E-3,2.443460980E-4
3.940851000E0,2.181661548E-3,-8.028514567E-4,1.919862116E-4
3.944849437E0,4.712388851E-3,-1.291543595E-3,-4.188790335E-4
3.948849437E0,1.762782573E-3,-5.235987919E-5,-1.221730490E-4
3.952851000E0,8.377580671E-4,8.552113432E-4,-5.235987919E-5
3.956851000E0,-8.726646192E-4,4.886921961E-4,1.047197584E-4
3.960849437E0,-1.029744279E-3,-3.490658419E-4,-4.363323096E-4
3.964849437E0,-3.141592606E-4,1.082104165E-3,-2.792526793E-4
3.968851000E0,1.396263397E-4,-4.886921961E-4,-8.726646047E-5
3.972849437E0,7.330382941E-4,-4.537856148E-4,-3.490658419E-4
3.976849437E0,-6.108652451E-4,-2.792526793E-4,-7.155850180E-4
3.980849437E0,3.665191471E-4,1.919862116E-4,8.726646047E-5
3.984851000E0,6.457717973E-4,-4.188790335E-4,8.901178953E-4
3.988849437E0,5.585053586E-4,-1.029744279E-3,3.490658419E-4
3.992849437E0,-2.094395168E-4,-4.363323096E-4,6.981316983E-5
3.996849437E0,-2.617993741E-4,-1.047197497E-3,7.330382941E-4
4.000851000E0,-2.617993741E-4,-2.967059845E-4,3.141592606E-4
4.004849437E0,2.722713631E-3,-2.443460980E-4,9.599310579E-4
4.008851000E0,-1.448623254E-3,5.235987919E-5,2.094395168E-4
4.012849437E0,-1.029744279E-3,-1.570796303E-4,-2.617993741E-4
4.016851000E0,-7.679448463E-4,-5.061454722E-4,5.061454722E-4
4.020851000E0,-1.047197584E-4,-1.204277156E-3,-9.424777818E-4
4.024851000E0,-8.377580671E-4,-2.146754880E-3,-1.012290944E-3
4.028849437E0,-1.169370604E-3,-4.188790335E-4,-1.483529806E-3
4.032851000E0,3.839724232E-4,0.000000000E0,-1.047197584E-4
4.036849437E0,-1.151917269E-3,-1.570796303E-4,3.839724232E-4
4.040849437E0,8.726646047E-5,-2.268928074E-4,-9.599310579E-4
4.044849437E0,7.155850180E-4,2.094395168E-4,-4.188790335E-4
4.048851000E0,2.792526793E-4,1.745329209E-4,-1.221730490E-4
4.052849437E0,4.537856148E-4,-5.759586347E-4,-5.235987919E-5
4.056851000E0,3.368485486E-3,-2.740166849E-3,-3.490658492E-5
4.060849437E0,1.117010717E-3,-1.029744279E-3,5.585053586E-4
4.064851000E0,-3.665191471E-4,-8.901178953E-4,4.188790335E-4
4.068849437E0,-2.967059845E-4,-6.981316837E-4,6.981316983E-5
4.072849437E0,1.570796303E-4,-2.094395168E-4,2.967059845E-4
4.076855687E0,-1.570796303E-4,5.235987919E-5,6.457717973E-4
4.080851000E0,-2.443460980E-4,1.396263397E-4,1.396263397E-4
4.084849437E0,1.745329209E-4,1.570796303E-4,-4.363323096E-4
4.088849437E0,1.221730490E-4,0.000000000E0,-4.363323096E-4
4.092851000E0,-1.745329246E-5,2.792526793E-4,-2.792526793E-4
4.096849437E0,1.570796361E-3,-9.948377265E-4,-8.726646047E-5
4.100849437E0,9.773843922E-4,1.204277156E-3,-4.886921961E-4
4.104849437E0,-1.012290944E-3,2.094394993E-3,-1.396263397E-4
4.108851000E0,-1.570796303E-4,-3.839724232E-4,-5.235987919E-5
4.112851000E0,-8.377580671E-4,-8.726646192E-4,6.981316837E-4
4.116849437E0,7.853981806E-4,1.832595677E-3,-5.759586347E-4
4.120849437E0,2.530727303E-3,4.363323096E-4,-4.712388909E-4
4.124851000E0,1.500983140E-3,-1.396263367E-3,1.396263397E-4
4.128849437E0,1.082104165E-3,-1.745329238E-3,3.141592606E-4
4.132849437E0,5.235987483E-4,-2.426007763E-3,2.094395168E-4
4.136849437E0,2.914699726E-3,-1.413716702E-3,4.712388909E-4
4.140851000E0,1.134464052E-3,3.665191471E-4,3.839724232E-4
4.144849437E0,6.806784077E-4,9.599310579E-4,-3.665191471E-4
4.148849437E0,-6.492624991E-3,6.544984877E-3,-5.759586347E-4
4.152849437E0,-4.014257283E-4,-2.076941775E-3,8.726646192E-4
4.156851000E0,0.000000000E0,-4.014257283E-4,4.886921961E-4
4.160849437E0,6.981316983E-5,-1.780235791E-3,2.443460980E-4
4.164849437E0,2.670353744E-3,-6.283185212E-4,3.316125658E-4
4.168849437E0,2.286381321E-3,5.410520826E-4,-2.268928074E-4
4.172851000E0,5.235987483E-4,4.014257283E-4,-3.839724232E-4
4.176855687E0,6.981316983E-5,1.117010717E-3,-2.617993741E-4
4.180849437E0,-4.241149873E-3,2.234021435E-3,-8.726646047E-5
4.184849437E0,-8.552113432E-4,-1.256637042E-3,-3.316125658E-4
4.188851000E0,-2.617993741E-4,3.839724232E-4,-8.552113432E-4
4.192851000E0,-1.221730490E-4,6.632251316E-4,-5.410520826E-4
4.196849437E0,-3.839724232E-4,2.967059845E-4,1.221730490E-4
4.200849437E0,-2.408554312E-3,7.853981806E-4,1.570796303E-4
4.204851000E0,3.368485486E-3,9.250245057E-4,-2.792526793E-4
4.208849437E0,3.490658419E-4,1.867502346E-3,1.919862116E-4
4.212851000E0,-2.042035107E-3,0.000000000E0,3.141592606E-4
4.216849437E0,-8.726646192E-4,-6.283185212E-4,-2.268928074E-4
4.220851000E0,-1.186823938E-3,-3.490658492E-5,-3.839724232E-4
4.224849437E0,-9.599310579E-4,1.466076588E-3,-2.617993741E-4
4.228849437E0,-4.537856148E-4,4.886921961E-4,-8.726646047E-5
4.232849437E0,-3.141592606E-4,2.443460980E-4,-4.886921961E-4
4.236849437E0,-2.792526793E-4,6.283185212E-4,-1.396263397E-4
4.240849437E0,-2.792526793E-4,5.759586347E-4,3.839724232E-4
4.244849437E0,-1.169370604E-3,-1.745329246E-5,6.981316983E-5
4.248849437E0,-5.061454722E-4,1.047197584E-4,2.792526793E-4
4.252849437E0,-4.886921961E-4,1.396263397E-4,1.919862116E-4
4.256849437E0,1.047197584E-4,1.570796303E-4,1.745329246E-5
4.260849437E0,-4.537856148E-4,-5.759586347E-4,2.792526793E-4
4.264851000E0,-1.850049011E-3,-9.250245057E-4,1.919862116E-4
4.268851000E0,-3.839724232E-4,-2.617993741E-4,1.745329246E-5
4.272849437E0,4.363323096E-4,5.235987919E-5,-4.537856148E-4
4.276849437E0,-6.806784077E-4,1.221730490E-4,-1.396263397E-4
4.280851000E0,-1.884955564E-3,4.537856148E-4,-5.235987919E-5
4.284851000E0,1.239183708E-3,-5.462880712E-3,2.443460980E-4
4.288849437E0,1.483529806E-3,1.239183708E-3,1.919862116E-4
4.292849437E0,1.570796303E-4,4.363323096E-4,-2.617993741E-4
4.296851000E0,-1.570796303E-4,6.806784077E-4,-6.981316837E-4
4.300849437E0,-1.745329238E-3,1.396263397E-4,2.443460980E-4
4.304849437E0,-1.413716702E-3,0.000000000E0,3.490658492E-5
4.308849437E0,-8.901178953E-4,-1.745329246E-5,-2.967059845E-4
4.312851000E0,-5.759586347E-4,4.188790335E-4,-2.443460980E-4
4.316851000E0,-1.919862116E-4,6.981316983E-5,3.490658419E-4
4.320849437E0,-1.151917269E-3,-8.901178953E-4,8.203047328E-4
4.324851000E0,-5.061454722E-4,-4.014257283E-4,3.316125658E-4
4.328851000E0,-3.316125658E-4,-2.792526793E-4,5.235987919E-5
4.332849437E0,-2.792526793E-4,-8.726646047E-5,0.000000000E0
4.336849437E0,-2.792526793E-4,-8.028514567E-4,-4.712388909E-4
4.340849437E0,-2.792526793E-4,-5.235987483E-4,-1.396263397E-4
4.344851000E0,3.141592606E-4,0.000000000E0,6.806784077E-4
4.348851000E0,1.745329209E-4,-6.283185212E-4,2.967059845E-4
4.352849437E0,1.186823938E-3,-9.424777818E-4,5.235987919E-5
4.356849437E0,1.448623254E-3,-5.585053586E-4,0.000000000E0
4.360851000E0,1.570796303E-4,-1.745329209E-4,-1.745329246E-5
4.364849437E0,-6.108652451E-4,6.981316983E-5,4.188790335E-4
4.368849437E0,-3.665191471E-4,1.396263397E-4,3.839724232E-4
4.372849437E0,-7.504915702E-4,1.570796303E-4,2.268928074E-4
4.376852562E0,-4.014257283E-4,1.570796303E-4,3.490658492E-5
4.380849437E0,-1.815142459E-3,1.570796303E-4,8.726646192E-4
4.384849437E0,-8.203047328E-4,1.570796303E-4,1.919862116E-4
4.388849437E0,-8.726646192E-4,7.504915702E-4,4.712388909E-4
4.392851000E0,4.537856148E-4,4.537856148E-4,8.726646047E-5
4.396849437E0,-8.377580671E-4,6.981316837E-4,1.343903481E-3
4.400849437E0,-2.617993741E-4,-2.967059845E-4,3.141592606E-4
4.404849437E0,-1.221730490E-4,-4.014257283E-4,5.235987919E-5
4.408849437E0,5.235987919E-5,-4.188790335E-4,0.000000000E0
4.412851000E0,2.809980186E-3,-1.483529806E-3,-1.745329246E-5
4.416849437E0,6.806784077E-4,9.250245057E-4,4.188790335E-4
4.420849437E0,3.874630900E-3,-2.478367416E-3,-2.094395168E-4
4.424849437E0,2.007128671E-3,-8.726646047E-5,-5.235987483E-4
4.428849437E0,-3.892084118E-3,1.308996929E-3,5.759586347E-4
4.432849437E0,-7.679448463E-4,1.570796303E-4,4.188790335E-4
4.436851000E0,1.378810150E-3,-1.029744279E-3,6.981316983E-5
4.440851000E0,-1.500983140E-3,-8.901178953E-4,5.934119690E-4
4.444849437E0,-1.029744279E-3,-1.047197584E-4,1.221730490E-4
4.448849437E0,-4.712388909E-4,3.839724232E-4,4.537856148E-4
4.452851000E0,-1.832595677E-3,3.665191471E-4,8.726646047E-5
4.456849437E0,-3.839724232E-4,2.094395168E-4,0.000000000E0
4.460849437E0,-1.396263397E-4,-7.155850180E-4,-1.745329246E-5
4.464849437E0,-6.981316837E-4,-5.061454722E-4,8.726646192E-4
4.468851000E0,1.692969352E-3,-2.251474652E-3,1.919862116E-4
4.472849437E0,1.134464052E-3,8.726646192E-4,-2.617993741E-4
4.476855687E0,1.151917269E-3,3.508111695E-3,-1.134464052E-3
4.480849437E0,5.410520826E-4,1.937315450E-3,-3.141592606E-4
4.484851000E0,-4.555309191E-3,4.712388909E-4,4.886921961E-4
4.488849437E0,-3.054326167E-3,-2.321287990E-3,1.308996929E-3
4.492849437E0,-1.151917269E-3,1.937315450E-3,3.141592606E-4
4.496849437E0,-1.099557383E-3,3.944444004E-3,-3.839724232E-4
4.500851000E0,2.443460980E-4,1.884955564E-3,-1.221730490E-4
4.504849437E0,-5.934119690E-4,-5.934119690E-4,-1.919862116E-4
4.508849437E0,-2.164208330E-3,1.029744279E-3,6.981316983E-5
4.512849437E0,2.792526793E-4,1.134464052E-3,0.000000000E0
4.516851000E0,1.221730490E-3,-1.064650831E-3,-1.745329246E-5
4.520851000E0,2.617993741E-4,1.937315450E-3,-1.745329246E-5
4.524849437E0,7.504915702E-4,-1.169370604E-3,7.155850180E-4
4.528849437E0,1.483529806E-3,2.617993741E-4,3.141592606E-4
4.532851000E0,9.250245057E-4,-6.981316837E-4,-2.268928074E-4
4.536849437E0,-2.059488557E-3,-6.632251316E-4,2.094395168E-4
4.540849437E0,-8.901178953E-4,-5.235987919E-5,9.250245057E-4
4.544849437E0,2.268928103E-3,5.585053586E-4,2.094395168E-4
4.548851000E0,-2.094395168E-4,4.188790335E-4,3.316125658E-4
4.552849437E0,-5.585053586E-4,-5.061454722E-4,6.632251316E-4
4.556851000E0,1.745329238E-3,-1.570796303E-4,1.396263397E-4
4.560849437E0,3.839724232E-4,1.274090377E-3,6.108652451E-4
4.564851000E0,1.082104165E-3,0.000000000E0,0.000000000E0
4.568849437E0,8.726646047E-5,8.726646192E-4,-1.745329246E-5
4.572849437E0,2.216568217E-3,-1.151917269E-3,-1.745329246E-5
4.576849437E0,-6.981316983E-5,7.330382941E-4,-1.745329246E-5
4.580851000E0,-2.617993858E-3,-2.687806962E-3,2.617993741E-4
4.584849437E0,-4.188790335E-4,4.537856148E-4,1.919862116E-4
4.588849437E0,2.809980186E-3,-2.757620299E-3,9.250245057E-4
4.592851000E0,1.570796361E-3,-1.029744279E-3,2.094395168E-4
4.596851000E0,4.886921961E-4,-4.642575979E-3,3.316125658E-4
4.600849437E0,8.203047328E-4,-1.989675453E-3,5.061454722E-4
4.604849437E0,6.108652451E-4,4.886921961E-4,2.617993741E-4
4.608851000E0,8.726646047E-5,1.047197584E-4,3.490658492E-5
4.612851000E0,-3.926991019E-3,-3.298672382E-3,0.000000000E0
4.616849437E0,1.308996929E-3,1.396263397E-4,-4.712388909E-4
4.620849437E0,3.735004691E-3,2.426007763E-3,0.000000000E0
4.624851000E0,3.193952609E-3,3.909537569E-3,-1.745329209E-4
4.628849437E0,-1.326450263E-3,-1.710422686E-3,-5.061454722E-4
4.632849437E0,-1.448623254E-3,-1.064650831E-3,-1.570796303E-4
4.636849437E0,2.967059845E-4,4.363323096E-4,-3.490658419E-4
4.640851000E0,4.712388909E-4,5.410520826E-4,4.712388909E-4
4.644851000E0,3.665191471E-4,-1.221730490E-3,6.981316837E-4
4.648849437E0,1.082104165E-3,-1.396263367E-3,-2.792526793E-4
4.652849437E0,1.431170036E-3,9.599310579E-4,-9.948377265E-4
4.656851000E0,7.679448463E-4,9.773843922E-4,-2.792526793E-4
4.660849437E0,-1.343903481E-3,-2.094395168E-4,-8.726646047E-5
4.664849437E0,-2.059488557E-3,-2.268928074E-4,-3.490658492E-5
4.668849437E0,-1.500983140E-3,-3.839724232E-4,-4.886921961E-4
4.672851000E0,-2.967059845E-4,-1.012290944E-3,-1.396263397E-4
4.676851000E0,-1.221730490E-4,-1.047197497E-3,-3.490658419E-4
4.680849437E0,6.457717973E-4,4.363323096E-4,-2.617993741E-4
4.684849437E0,-1.675516134E-3,9.948377265E-4,-3.839724232E-4
4.688851000E0,2.443460980E-4,9.773843922E-4,-2.617993741E-4
4.692849437E0,-8.726646192E-4,6.981316983E-5,-8.726646047E-5
4.696851000E0,-1.483529806E-3,0.000000000E0,-4.886921961E-4
4.700849437E0,-2.094394993E-3,1.047197584E-4,-1.396263397E-4
4.704851000E0,4.363323096E-4,4.537856148E-4,-5.235987919E-5
4.708849437E0,1.099557383E-3,3.839724232E-4,-3.490658492E-5
4.712849437E0,2.478367416E-3,-6.632251316E-4,-1.745329246E-5
4.716849437E0,-1.204277156E-3,2.949606394E-3,4.188790335E-4
4.720851000E0,-9.599310579E-4,5.759586347E-4,2.268928074E-4
4.724849437E0,-6.108652451E-4,-1.570796303E-4,1.745329209E-4
4.728849437E0,-1.919862116E-4,-6.981316983E-5,1.745329209E-4
4.732849437E0,-7.155850180E-4,4.014257283E-4,1.570796303E-4
4.736849437E0,-2.443460980E-4,1.134464052E-3,-4.188790335E-4
4.740849437E0,1.675516134E-3,1.012290944E-3,-2.792526793E-4
4.744849437E0,4.433136433E-3,-4.886921961E-4,-3.839724232E-4
4.748849437E0,-1.274090377E-3,2.548180753E-3,3.141592606E-4
4.752851000E0,-2.356194425E-3,-7.155850180E-4,3.490658419E-4
4.756849437E0,3.665191471E-4,-1.256637042E-3,6.981316983E-5
4.760849437E0,2.303834539E-3,5.410520826E-4,-1.570796303E-4
4.764851000E0,5.410520826E-4,2.670353744E-3,-3.490658419E-4
4.768851000E0,-6.981316983E-5,3.665191471E-4,1.745329209E-4
4.772849437E0,3.665191471E-4,5.235987919E-5,1.745329209E-4
4.776852562E0,3.490658492E-5,1.483529806E-3,1.745329246E-5
4.780851000E0,-1.919862116E-4,2.094395168E-4,-4.537856148E-4
4.784849437E0,-5.585053586E-4,-4.188790335E-4,-4.363323096E-4
4.788849437E0,-4.886921961E-4,-2.792526793E-4,-2.792526793E-4
4.792849437E0,2.042035107E-3,-8.726646047E-5,-6.981316837E-4
4.796851000E0,3.316125658E-4,1.151917269E-3,-5.235987919E-5
4.800849437E0,1.745329246E-5,5.585053586E-4,-3.490658492E-5
4.804849437E0,-3.490658492E-5,-1.745329246E-5,-1.745329246E-5
4.808849437E0,-9.773843922E-4,-3.141592606E-4,-3.316125658E-4
4.812851000E0,2.792526793E-4,-1.762782573E-3,-1.047197584E-4
4.816851000E0,-8.726646192E-4,-1.239183708E-3,-1.919862116E-4
4.820849437E0,-1.221730490E-4,3.839724232E-4,-6.981316983E-5
4.824851000E0,-8.203047328E-4,-2.617993858E-3,4.014257283E-4
4.828851000E0,1.518436475E-3,-3.281218931E-3,6.981316983E-5
4.832849437E0,6.283185212E-4,-7.155850180E-4,4.363323096E-4
4.836849437E0,-3.490658492E-5,-6.632251316E-4,8.377580671E-4
4.840849437E0,-6.632251316E-4,-4.886921961E-4,3.316125658E-4
4.844851000E0,-3.979350906E-3,-7.679448463E-4,5.235987919E-5
4.848851000E0,-1.850049011E-3,3.665191471E-4,0.000000000E0
4.852849437E0,-2.268928074E-4,2.094395168E-4,2.617993741E-4
4.856849437E0,1.675516134E-3,4.886921961E-4,4.886921961E-4
4.860851000E0,3.682644805E-3,-5.235987919E-5,-1.919862116E-4
4.864849437E0,2.967059845E-4,-3.316125658E-4,-6.981316983E-5
4.868849437E0,-4.188790335E-4,1.745329246E-5,2.443460980E-4
4.872849437E0,1.221730490E-4,1.221730490E-4,-8.726646047E-5
4.876857250E0,-1.570796303E-4,1.570796303E-4,-1.919862116E-4
4.880849437E0,-1.151917269E-3,-4.188790335E-4,-6.981316983E-5
4.884849437E0,-5.235987919E-5,0.000000000E0,1.047197584E-4
4.888849437E0,-2.094395168E-4,2.617993741E-4,-1.396263397E-4
4.892851000E0,1.745329246E-5,1.919862116E-4,3.839724232E-4
4.896849437E0,-3.490658492E-5,1.745329209E-4,3.665191471E-4
4.900849437E0,-2.094395168E-4,1.570796303E-4,5.235987483E-4
4.904849437E0,-8.552113432E-4,-4.188790335E-4,8.552113432E-4
4.908849437E0,1.221730490E-3,-1.640609466E-3,8.028514567E-4
4.912849437E0,-4.886921961E-4,-2.967059845E-4,3.316125658E-4
4.916849437E0,-7.853981806E-4,3.490658492E-5,3.490658419E-4
4.920849437E0,1.378810150E-3,5.934119690E-4,-2.268928074E-4
4.924851000E0,-5.759586347E-4,4.188790335E-4,-1.431170036E-3
4.928849437E0,-1.710422686E-3,-1.256637042E-3,-3.839724232E-4
4.932849437E0,-1.850049011E-3,2.443460980E-4,-1.221730490E-4
4.936851000E0,-1.291543595E-3,-1.047197584E-4,-5.235987919E-5
4.940851000E0,5.235987919E-5,5.410520826E-4,4.014257283E-4
4.944849437E0,2.443460980E-4,8.552113432E-4,6.981316983E-5
4.948849437E0,9.075712296E-4,3.490658492E-5,0.000000000E0
4.952851000E0,1.745329209E-4,-3.141592606E-4,4.188790335E-4
4.956849437E0,-7.504915702E-4,-2.443460980E-4,6.806784077E-4
4.960849437E0,-8.552113432E-4,-1.291543595E-3,1.204277156E-3
4.964849437E0,9.075712296E-4,-5.235987919E-5,0.000000000E0
4.968851000E0,1.745329246E-5,-3.490658492E-5,-1.745329246E-5
4.972849437E0,-1.919862116E-4,-4.886921961E-4,4.188790335E-4
4.976855687E0,3.490658492E-5,4.363323096E-4,6.981316983E-5
4.980849437E0,-3.490658492E-5,-6.632251316E-4,0.000000000E0
4.984851000E0,-5.061454722E-4,-4.886921961E-4,-4.712388909E-4
4.988849437E0,-1.239183708E-3,0.000000000E0,1.396263397E-4
4.992849437E0,-3.839724232E-4,1.221730490E-4,1.570796303E-4
4.996849437E0,-7.504915702E-4,-1.396263397E-4,4.712388909E-4
5.000851000E0,-1.605702913E-3,3.839724232E-4,8.726646047E-5
5.004851000E0,-4.712388909E-4,8.203047328E-4,-7.330382941E-4
5.008849437E0,-1.972222002E-3,2.443460980E-3,-3.665191471E-4
5.012849437E0,-1.308996929E-3,7.504915702E-4,1.745329209E-4
5.016851000E0,-3.089232836E-3,1.745329246E-5,4.712388909E-4
5.020849437E0,1.675516134E-3,-2.286381321E-3,5.410520826E-4
5.024849437E0,2.094395168E-4,-1.954768784E-3,2.617993741E-4
5.028849437E0,-2.967059845E-4,-9.773843922E-4,7.853981806E-4
5.032851000E0,-5.759586347E-4,-5.759586347E-4,1.082104165E-3
5.036849437E0,-5.235987919E-5,2.617993741E-4,8.552113432E-4
5.040849437E0,-6.981316983E-5,-1.308996929E-3,1.919862116E-4
5.044849437E0,6.981316983E-5,2.268928074E-4,1.745329246E-5
5.048851000E0,-1.239183708E-3,-1.047197584E-4,-4.537856148E-4
5.052849437E0,-8.203047328E-4,8.726646047E-5,-1.396263397E-4
5.056849437E0,-1.326450263E-3,2.967059845E-4,-5.235987919E-5
5.060849437E0,-4.014257283E-4,-6.981316837E-4,4.014257283E-4
5.064851000E0,-1.570796303E-4,-2.094395168E-4,6.981316983E-5
5.068849437E0,-2.443460980E-4,5.235987919E-5,0.000000000E0
5.072849437E0,-1.466076588E-3,4.363323096E-4,-1.745329246E-5
5.076849437E0,-2.792526793E-4,3.839724232E-4,-1.745329246E-5
5.080851000E0,-7.330382941E-4,-2.094395168E-4,4.188790335E-4
5.084849437E0,-3.839724232E-4,-2.617993858E-3,3.839724232E-4
5.088849437E0,1.937315450E-3,-1.012290944E-3,-6.632251316E-4
5.092849437E0,-1.396263397E-4,-1.396263397E-4,-7.853981806E-4
5.096851000E0,1.239183708E-3,1.274090377E-3,-5.235987483E-4
5.100849437E0,-2.286381321E-3,6.283185212E-4,-1.570796303E-4
5.104849437E0,-2.286381321E-3,7.330382941E-4,6.981316983E-5
5.108851000E0,6.981316837E-4,-2.862340072E-3,0.000000000E0
5.112851000E0,1.047197584E-4,-6.108652451E-4,-1.745329209E-4
5.116849437E0,5.759586347E-4,1.308996929E-3,-5.061454722E-4
5.120849437E0,8.726646047E-5,4.537856148E-4,-1.570796303E-4
5.124851000E0,-9.250245057E-4,-5.235987919E-5,-5.235987919E-5
5.128851000E0,2.076941775E-3,8.726646047E-5,-6.283185212E-4
5.132849437E0,1.745329209E-4,-2.792526793E-4,-4.886921961E-4
5.136849437E0,-2.391101094E-3,-4.014257283E-4,2.967059845E-4
5.140851000E0,-2.478367416E-3,-2.373647876E-3,5.235987919E-5
5.144851000E0,-3.403391922E-3,-1.099557383E-3,0.000000000E0
5.148849437E0,-1.710422686E-3,5.759586347E-4,-1.745329246E-5
5.152849437E0,8.726646047E-5,0.000000000E0,-1.745329246E-5
5.156851000E0,-1.745329209E-4,-1.535889693E-3,-1.745329246E-5
5.160849437E0,3.316125658E-4,4.537856148E-4,-1.745329246E-5
5.164849437E0,4.886921961E-4,3.106686054E-3,-1.745329246E-5
5.168849437E0,-1.570796361E-3,1.378810150E-3,2.617993741E-4
5.172851000E0,-1.221730490E-3,-1.012290944E-3,1.919862116E-4
5.176851000E0,-2.181661548E-3,-1.483529806E-3,3.141592606E-4
5.180849437E0,-6.108652451E-4,-1.448623254E-3,8.028514567E-4
5.184849437E0,3.525565146E-3,6.457717973E-4,3.490658492E-5
5.188851000E0,2.984513063E-3,-2.740166849E-3,8.901178953E-4
5.192849437E0,-9.250245057E-4,-2.687806962E-3,9.424777818E-4
5.196851000E0,3.298672382E-3,-2.216568217E-3,8.203047328E-4
5.200849437E0,-9.948377265E-4,0.000000000E0,1.745329209E-4
5.204851000E0,-1.064650831E-3,-6.283185212E-4,-1.221730490E-4
5.208849437E0,-1.745329209E-4,-2.129301662E-3,8.726646047E-5
5.212849437E0,2.914699726E-3,-2.391101094E-3,-1.396263397E-4
5.216849437E0,3.839724232E-4,-1.989675453E-3,-2.094395168E-4
5.220851000E0,3.490658492E-5,-1.745329238E-3,5.235987919E-5
5.224849437E0,8.377580671E-4,8.552113432E-4,1.396263397E-4
5.228849437E0,1.972222002E-3,1.396263367E-3,7.504915702E-4
5.232849437E0,1.570796303E-4,-2.513274085E-3,-1.221730490E-4
5.236851000E0,-1.221730490E-3,-3.246312495E-3,-5.235987919E-5
5.240849437E0,-5.235987483E-4,1.745329209E-4,-3.490658492E-5
5.244849437E0,-9.424777818E-4,9.250245057E-4,-1.745329246E-5
5.248849437E0,-1.658062800E-3,-9.773843922E-4,-1.745329246E-5
5.252851000E0,-3.490658492E-5,-2.530727303E-3,-1.745329246E-5
5.256849437E0,2.478367416E-3,9.599310579E-4,-1.745329246E-5
5.260849437E0,2.687806962E-3,2.775073517E-3,-1.745329246E-5
5.264851000E0,1.919862116E-4,-1.919862116E-4,-1.745329246E-5
5.268851000E0,-2.111848444E-3,-1.274090377E-3,-1.745329246E-5
5.272849437E0,-4.537856148E-4,-2.094395168E-4,2.617993741E-4
5.276855687E0,-3.141592606E-4,2.094395168E-4,1.919862116E-4
5.280851000E0,-8.901178953E-4,-7.155850180E-4,1.745329246E-5
5.284851000E0,-4.363323096E-4,-2.164208330E-3,0.000000000E0
5.288849437E0,3.124139272E-3,-4.363323096E-4,4.188790335E-4
5.292849437E0,6.108652451E-4,5.585053470E-3,3.839724232E-4
5.296851000E0,4.014257342E-3,-2.268928074E-4,-6.981316983E-5
5.300849437E0,5.410520826E-4,-1.134464052E-3,-1.919862116E-4
5.304849437E0,-2.094395168E-4,-1.361356815E-3,-6.981316983E-5
5.308849437E0,1.378810150E-3,6.457717973E-4,4.014257283E-4
5.312851000E0,-4.537856148E-4,5.934119690E-4,5.235987483E-4
5.316849437E0,-4.712388909E-4,-1.658062800E-3,1.012290944E-3
5.320849437E0,1.623156248E-3,1.483529806E-3,2.268928074E-4
5.324849437E0,3.071779385E-3,3.054326167E-3,3.490658492E-5
5.328851000E0,-1.343903481E-3,1.535889693E-3,4.363323096E-4
5.332849437E0,-1.588249579E-3,-1.745329238E-3,8.726646047E-5
5.336849437E0,-3.333578818E-3,-2.129301662E-3,0.000000000E0
5.340849437E0,-2.129301662E-3,-1.937315450E-3,4.188790335E-4
5.344851000E0,2.391101094E-3,-2.024581889E-3,9.773843922E-4
5.348849437E0,3.263765713E-3,-4.014257283E-4,6.806784077E-4
5.352849437E0,1.239183708E-3,1.745329246E-5,4.363323096E-4
5.356849437E0,5.759586347E-4,2.059488557E-3,2.443460980E-4
5.360851000E0,9.599310579E-4,-3.543018363E-3,-5.585053586E-4
5.364849437E0,6.457717973E-4,-7.853981806E-4,-9.250245057E-4
5.368849437E0,-1.745329209E-4,-6.981316983E-5,-8.552113432E-4
5.372849437E0,-5.410520826E-4,1.902408898E-3,-9.948377265E-4
5.376854125E0,-5.235987919E-5,-1.221730490E-4,-2.792526793E-4
5.380849437E0,2.181661548E-3,5.235987483E-4,1.919862116E-4
5.384849437E0,6.632251316E-4,5.585053586E-4,7.679448463E-4
5.388849437E0,-4.712388909E-4,7.155850180E-4,7.679448463E-4
5.392851000E0,-1.745329246E-5,2.548180753E-3,3.316125658E-4
5.396849437E0,-1.117010717E-3,1.239183708E-3,5.061454722E-4
5.400849437E0,-5.235987919E-5,4.363323096E-4,-3.316125658E-4
5.404849437E0,-2.094395168E-4,3.839724232E-4,3.316125658E-4
5.408851000E0,-1.221730490E-4,-1.867502346E-3,9.599310579E-4
5.412849437E0,1.570796361E-3,-2.094395168E-4,2.268928074E-4
5.416849437E0,-2.443460980E-4,-6.806784077E-4,-4.014257283E-4
5.420849437E0,-1.169370604E-3,-1.919862116E-4,-1.221730490E-4
5.424851000E0,-3.665191354E-3,-3.665191471E-4,-5.235987919E-5
5.428849437E0,-5.585053586E-4,6.108652451E-4,2.443460980E-4
5.432849437E0,-6.981316983E-5,-1.500983140E-3,4.886921961E-4
5.436851000E0,2.268928074E-4,-3.124139272E-3,2.443460980E-4
5.440851000E0,5.934119690E-4,-9.948377265E-4,4.886921961E-4
5.444849437E0,9.948377265E-4,1.570796303E-4,8.726646047E-5
5.448849437E0,1.256637042E-3,1.570796303E-4,0.000000000E0
5.452851000E0,1.605702913E-3,1.570796303E-4,-1.745329246E-5
5.456851000E0,-1.117010717E-3,1.745329209E-4,7.155850180E-4
5.460849437E0,-8.482299745E-3,-4.485496320E-3,3.141592606E-4
5.464849437E0,-4.537856206E-3,-8.726646192E-3,5.235987919E-5
5.468851000E0,5.515240598E-3,3.543018363E-3,4.363323096E-4
5.472849437E0,1.178097259E-2,7.853982039E-3,8.726646047E-5
5.476849437E0,1.518436475E-3,-3.543018363E-3,-2.967059845E-4
5.480849437E0,-4.345869645E-3,-5.480333697E-3,-2.443460980E-4
5.484851000E0,7.679448463E-4,-5.410520826E-4,5.061454722E-4
5.488849437E0,-3.735004691E-3,8.255407214E-3,2.443460980E-4
5.492849437E0,-1.204277202E-2,-7.173303049E-3,1.919862116E-4
5.496849437E0,-7.417649496E-3,-1.096066739E-2,1.745329246E-5
5.500851000E0,6.859143730E-3,2.827433404E-3,0.000000000E0
5.504849437E0,1.544616371E-2,1.275835652E-2,-4.712388909E-4
5.508849437E0,7.155850064E-3,3.612831468E-3,-1.396263397E-4
5.512849437E0,-3.316125600E-3,-6.928957067E-3,-9.599310579E-4
5.516851000E0,-6.475171540E-3,-3.316125658E-4,-1.169370604E-3
5.520849437E0,-4.293509759E-3,5.899212789E-3,-6.283185212E-4
5.524849437E0,-5.550147034E-3,-3.420845373E-3,-7.853981806E-4
5.528849437E0,-3.909537569E-3,-1.356120780E-2,3.665191471E-4
5.532851000E0,8.674286306E-3,-3.141592722E-3,1.570796361E-3
5.536849437E0,1.427679323E-2,1.017526910E-2,8.377580671E-4
5.540849437E0,1.073377486E-2,2.617993858E-3,3.316125658E-4
5.544849437E0,-1.169370604E-3,-3.089232836E-3,-2.268928074E-4
5.548851000E0,-6.702064537E-3,-5.497787148E-3,6.632251316E-4
5.552849437E0,-6.928957067E-3,-2.443460980E-4,-1.396263397E-4
5.556849437E0,-4.241149873E-3,-1.291543595E-3,5.235987483E-4
5.560849437E0,-4.014257283E-4,-5.480333697E-3,2.617993741E-4
5.564849437E0,8.691739291E-3,-3.263765713E-3,3.490658492E-5
5.568849437E0,1.110029407E-2,5.131267942E-3,4.363323096E-4
5.572849437E0,8.412486874E-3,5.078908056E-3,-1.099557383E-3
5.576849437E0,-7.347836159E-3,1.448623254E-3,0.000000000E0
5.580851000E0,-1.174606569E-2,3.316125658E-4,-7.679448463E-4
5.584849437E0,-1.214749180E-2,-2.338741207E-3,-8.203047328E-4
5.588849437E0,-4.729842301E-3,-4.712388909E-4,-5.235987483E-4
5.592849437E0,3.822271014E-3,1.396263397E-4,-3.141592606E-4
5.596849437E0,7.853982039E-3,1.500983140E-3,1.919862116E-4
5.600849437E0,7.103490178E-3,5.235987483E-4,1.745329209E-4
5.604849437E0,1.483529806E-3,-1.082104165E-3,-2.617993741E-4
5.608851000E0,-1.919862116E-3,0.000000000E0,-2.443460980E-4
5.612849437E0,-5.061454605E-3,-1.745329246E-5,5.061454722E-4
5.616849437E0,-6.492624991E-3,-9.250245057E-4,4.014257283E-4
5.620849437E0,-1.605702913E-3,-2.827433404E-3,6.981316983E-5
5.624851000E0,5.235987715E-3,1.623156248E-3,0.000000000E0
5.628849437E0,5.672320258E-3,4.607669078E-3,8.726646192E-4
5.632849437E0,3.071779385E-3,2.617993741E-4,6.457717973E-4
5.636849437E0,1.396263397E-4,-2.356194425E-3,1.396263397E-4
5.640851000E0,-1.658062800E-3,-6.457717973E-4,0.000000000E0
5.644849437E0,-4.694935866E-3,1.047197584E-4,-1.745329246E-5
5.648849437E0,-4.136430100E-3,-1.483529806E-3,-1.745329246E-5
5.652849437E0,-9.773843922E-4,-2.967059612E-3,4.188790335E-4
5.656851000E0,3.595378250E-3,6.981316837E-4,3.839724232E-4
5.660849437E0,5.532693584E-3,2.251474652E-3,5.235987483E-4
5.664849437E0,2.146754880E-3,-1.745329209E-4,1.466076588E-3
5.668849437E0,-6.981316837E-4,-2.635447076E-3,9.599310579E-4
5.672851000E0,-3.403391922E-3,-1.308996929E-3,-8.203047328E-4
5.676849437E0,-1.535889693E-3,9.773843922E-4,-5.410520826E-4
5.680849437E0,-1.361356815E-3,6.806784077E-4,-1.570796303E-4
5.684849437E0,-6.981316837E-4,1.396263397E-4,-5.235987919E-5
5.688851000E0,2.303834539E-3,9.075712296E-4,9.948377265E-4
5.692849437E0,1.884955564E-3,2.007128671E-3,9.948377265E-4
5.696849437E0,-2.862340072E-3,1.099557383E-3,1.274090377E-3
5.700849437E0,-4.712388851E-3,5.585053586E-4,6.108652451E-4
5.704851000E0,-3.385938704E-3,-1.675516134E-3,-1.570796303E-4
5.708849437E0,-1.239183708E-3,-2.251474652E-3,-2.094395168E-4
5.712849437E0,-1.570796361E-3,-4.712388909E-4,2.094395168E-4
5.716849437E0,-1.064650831E-3,1.500983140E-3,1.745329209E-4
5.720851000E0,1.308996929E-3,5.235987919E-5,3.141592606E-4
5.724849437E0,1.780235791E-3,5.759586347E-4,6.632251316E-4
5.728849437E0,-1.692969352E-3,1.029744279E-3,5.934119690E-4
5.732849437E0,-1.832595677E-3,-2.303834539E-3,-3.141592606E-4
5.736849437E0,-6.981316837E-4,-3.787364578E-3,-4.014257283E-4
5.740849437E0,2.094395168E-4,-1.902408898E-3,-5.759586347E-4
5.744851000E0,1.204277156E-3,8.028514567E-4,-1.221730490E-3
5.748849437E0,3.263765713E-3,1.082104165E-3,-3.316125658E-4
5.752849437E0,9.424777818E-4,1.047197584E-4,-1.047197584E-4
5.756849437E0,-1.448623254E-3,1.396263397E-4,3.839724232E-4
5.760849437E0,-1.640609466E-3,1.570796303E-4,6.981316983E-5
5.764851000E0,8.552113432E-4,-7.330382941E-4,-4.537856148E-4
5.768849437E0,-1.186823938E-3,8.726646047E-5,-7.330382941E-4
5.772849437E0,-3.665191471E-4,2.792526793E-4,-5.061454722E-4
5.776849437E0,4.363323096E-4,-5.235987483E-4,4.363323096E-4
5.780851000E0,5.480333697E-3,3.263765713E-3,3.839724232E-4
5.784849437E0,1.500983140E-3,2.181661548E-3,3.665191471E-4
5.788849437E0,3.316125658E-4,6.806784077E-4,8.203047328E-4
5.792849437E0,-1.762782573E-3,7.504915702E-4,4.886921961E-4
5.796851000E0,-2.007128671E-3,6.108652451E-4,8.726646047E-5
5.800851000E0,-1.483529806E-3,4.363323096E-4,0.000000000E0
5.804849437E0,4.537856148E-4,-1.256637042E-3,-1.745329246E-5
5.808849437E0,2.757620299E-3,6.806784077E-4,-1.745329246E-5
5.812851000E0,-1.431170036E-3,1.361356815E-3,-1.745329246E-5
5.816849437E0,-5.759586347E-4,1.745329246E-5,4.188790335E-4
5.820849437E0,-1.396263367E-3,-1.064650831E-3,3.839724232E-4
5.824849437E0,2.268928103E-3,-1.658062800E-3,-2.094395168E-4
5.828851000E0,2.268928074E-4,7.330382941E-4,-6.806784077E-4
5.832849437E0,7.504915702E-4,1.064650831E-3,-5.061454722E-4
5.836849437E0,1.396263397E-4,8.726646047E-5,1.396263397E-4
5.840849437E0,7.155850180E-4,-8.901178953E-4,6.108652451E-4
5.844851000E0,2.094394993E-3,-1.623156248E-3,1.221730490E-4
5.848849437E0,1.221730490E-3,-1.029744279E-3,4.537856148E-4
5.852849437E0,1.221730490E-4,-4.363323096E-4,5.410520826E-4
5.856849437E0,-7.679448463E-4,-1.640609466E-3,1.047197584E-4
5.860851000E0,4.712388909E-4,-2.408554312E-3,4.537856148E-4
5.864849437E0,5.061454722E-4,2.443460980E-4,-5.235987919E-5
5.868849437E0,-8.028514567E-4,3.316125658E-4,1.047197584E-4
5.872849437E0,-1.919862116E-3,-2.268928074E-4,0.000000000E0
5.876851000E0,-1.012290944E-3,6.457717973E-4,-1.745329246E-5
5.880849437E0,-4.712388909E-4,5.934119690E-4,-1.745329246E-5
5.884849437E0,5.585053586E-4,2.792526793E-4,-4.712388909E-4
5.888849437E0,3.839724232E-4,-1.291543595E-3,-4.363323096E-4
5.892851000E0,-1.047197584E-4,-5.061454722E-4,0.000000000E0
5.896849437E0,-2.268928074E-4,8.901178953E-4,5.759586347E-4
5.900849437E0,-5.585053586E-4,5.235987919E-5,1.221730490E-4
5.904849437E0,-5.061454722E-4,-9.075712296E-4,0.000000000E0
5.908851000E0,-3.490658492E-5,6.283185212E-4,-1.745329246E-5
5.912849437E0,8.377580671E-4,1.640609466E-3,4.188790335E-4
5.916849437E0,4.537856148E-4,4.014257283E-4,6.981316983E-5
5.920849437E0,-2.042035107E-3,-1.413716702E-3,4.363323096E-4
5.924851000E0,-1.640609466E-3,-1.291543595E-3,8.726646047E-5
5.928849437E0,-1.378810150E-3,-3.665191471E-4,4.363323096E-4
5.932849437E0,-5.585053586E-4,-4.188790335E-4,-1.919862116E-4
5.936851000E0,-3.490658419E-4,0.000000000E0,-2.268928074E-4
5.940851000E0,-2.967059845E-4,1.221730490E-4,-3.665191471E-4
5.944849437E0,1.570796303E-4,-1.396263397E-4,-2.617993741E-4
5.948849437E0,1.221730490E-4,3.839724232E-4,6.457717973E-4
5.952851000E0,-5.131267942E-3,-3.665191471E-4,7.504915702E-4
5.956851000E0,-3.316125658E-4,-2.391101094E-3,1.745329246E-5
5.960849437E0,-1.797689125E-3,4.188790335E-4,1.221730490E-4
5.964849437E0,-6.632251316E-4,3.665191471E-4,-8.901178953E-4
5.968851000E0,-1.151917269E-3,-2.775073517E-3,-2.443460980E-4
5.972849437E0,1.588249579E-3,-3.001966281E-3,5.235987919E-5
5.976851000E0,2.478367416E-3,-1.413716702E-3,-1.570796303E-4
5.980849437E0,-6.108652451E-4,-2.443460980E-4,2.268928074E-4
5.984851000E0,-3.490658492E-5,5.235987919E-5,7.853981806E-4
5.988849437E0,-1.710422686E-3,-3.019419499E-3,4.712388909E-4
5.992849437E0,-2.478367416E-3,-2.007128671E-3,8.726646047E-5
5.996849437E0,-5.410520826E-4,-3.839724232E-4,0.000000000E0
6.000851000E0,8.377580671E-4,-8.901178953E-4,1.169370604E-3
6.004849437E0,-2.076941775E-3,2.286381321E-3,4.188790335E-4
6.008849437E0,1.396263397E-4,-1.675516134E-3,8.726646047E-5
6.012849437E0,2.076941775E-3,-2.967059845E-4,0.000000000E0
6.016851000E0,1.745329209E-4,3.490658492E-5,-1.745329246E-5
6.020849437E0,1.221730490E-4,-2.705260413E-3,7.155850180E-4
6.024851000E0,1.221730490E-4,-2.251474652E-3,3.141592606E-4
6.028849437E0,-1.570796303E-4,-4.537856148E-4,5.235987919E-5
6.032851000E0,2.146754880E-3,-1.797689125E-3,4.363323096E-4
6.036849437E0,3.490658477E-3,-3.316125658E-4,8.726646047E-5
6.040849437E0,2.059488557E-3,1.832595677E-3,-2.967059845E-4
6.044849437E0,6.283185212E-4,4.363323096E-4,1.919862116E-4
6.048851000E0,-7.853981806E-4,3.839724232E-4,-2.617993741E-4
6.052849437E0,-1.308996929E-3,2.094395168E-4,-3.839724232E-4
6.056851000E0,-1.134464052E-3,4.712388909E-4,1.745329246E-5
6.060849437E0,-3.665191354E-3,5.044001620E-3,-6.108652451E-4
6.064851000E0,-1.012290944E-3,5.375613924E-3,2.617993741E-4
6.068851000E0,1.029744279E-3,3.141592606E-4,-8.726646047E-5
6.072849437E0,5.061454722E-4,-1.448623254E-3,-1.919862116E-4
6.076849437E0,3.665191471E-4,-9.948377265E-4,-6.981316983E-5
6.080851000E0,-1.291543595E-3,1.047197497E-3,4.014257283E-4
6.084851000E0,-7.155850180E-4,1.151917269E-3,6.981316983E-5
6.088849437E0,-2.181661548E-3,7.155850180E-4,0.000000000E0
6.092849437E0,-9.250245057E-4,2.967059845E-4,-1.745329246E-5
6.096851000E0,0.000000000E0,-5.410520826E-4,-1.745329246E-5
6.100849437E0,6.806784077E-4,2.827433404E-3,2.617993741E-4
6.104849437E0,3.752457909E-3,-9.250245057E-4,4.886921961E-4
6.108851000E0,2.111848444E-3,-2.827433404E-3,2.443460980E-4
6.112851000E0,-2.443460980E-4,-2.129301662E-3,3.490658492E-5
6.116849437E0,-3.420845373E-3,1.815142459E-3,0.000000000E0
6.120849437E0,-1.710422686E-3,-4.363323096E-4,-1.745329246E-5
6.124851000E0,-4.886921961E-4,-7.330382941E-4,-1.745329246E-5
6.128849437E0,1.745329238E-3,-2.617993858E-3,-1.745329246E-5
6.132849437E0,1.308996929E-3,1.396263367E-3,-1.745329246E-5
6.136849437E0,2.076941775E-3,1.745329246E-5,-3.316125658E-4
6.140851000E0,7.853981806E-4,1.169370604E-3,-2.617993741E-4
6.144851000E0,-4.537856148E-4,2.792526793E-4,3.490658419E-4
6.148849437E0,-1.378810150E-3,1.919862116E-4,-2.268928074E-4
6.152849437E0,-1.326450263E-3,2.408554312E-3,-2.792526793E-4
6.156851000E0,-4.363323096E-4,3.839724232E-4,-1.221730490E-4
6.160849437E0,6.981316983E-5,-1.326450263E-3,-8.726646047E-5
6.164849437E0,-1.274090377E-3,6.108652451E-4,2.094395168E-4
6.168849437E0,-5.934119690E-4,3.665191471E-4,1.396263397E-4
6.172851000E0,-1.448623254E-3,4.537856148E-4,-1.745329246E-5
6.176851000E0,-3.612831468E-3,2.268928103E-3,-5.235987919E-5
6.180849437E0,-4.363323096E-3,2.268928074E-4,-6.981316983E-5
6.184849437E0,-1.099557383E-3,-3.141592606E-4,5.061454722E-4
6.188851000E0,-5.061454722E-4,1.012290944E-3,5.235987483E-4
6.192849437E0,-9.948377265E-4,1.745329209E-4,3.665191471E-4
6.196849437E0,8.377580671E-4,-6.283185212E-4,1.082104165E-3
6.200849437E0,2.617993741E-4,-6.981316837E-4,6.981316983E-5
6.204851000E0,-3.141592606E-4,-5.585053586E-4,-3.490658492E-5
6.208849437E0,-2.879793290E-3,1.553343027E-3,-6.981316983E-5
6.212849437E0,-3.839724232E-4,1.745329246E-5,-6.981316983E-5
6.216849437E0,6.981316983E-5,2.094395168E-4,-6.981316983E-5
6.220851000E0,2.094395168E-4,7.155850180E-4,2.094395168E-4
6.224849437E0,-3.316125658E-4,1.605702913E-3,5.934119690E-4
6.228851000E0,2.443460980E-4,4.886921961E-4,8.726646047E-5
6.232849437E0,-1.535889693E-3,6.283185212E-4,-3.490658492E-5
6.236851000E0,-3.490658419E-4,3.839724232E-4,3.665191471E-4
6.240849437E0,-1.919862116E-4,1.570796303E-4,3.490658492E-5
6.244849437E0,-4.363323096E-4,4.014257283E-4,-4.886921961E-4
6.248849437E0,-5.235987483E-4,3.141592606E-4,1.047197584E-4
6.252849437E0,-6.981316983E-5,2.967059845E-4,7.155850180E-4
6.256852562E0,-4.188790335E-4,5.934119690E-4,4.188790335E-4
6.260849437E0,-3.490658419E-4,5.235987483E-4,3.490658492E-5
6.264849437E0,-1.919862116E-4,5.235987919E-5,-3.490658492E-5
6.268849437E0,-1.396263397E-4,3.665191471E-4,-6.981316983E-5
6.272849437E0,1.361356815E-3,4.537856148E-4,-6.981316983E-5
6.276849437E0,5.410520826E-4,3.316125658E-4,-3.665191471E-4
6.280851000E0,-4.014257283E-4,2.967059845E-4,0.000000000E0
6.284849437E0,-1.710422686E-3,-1.396263397E-4,1.291543595E-3
6.288849437E0,-8.377580671E-4,3.141592606E-4,1.221730490E-4
6.292849437E0,7.155850180E-4,-2.967059845E-4,-1.745329209E-4
6.296851000E0,3.385938704E-3,1.221730490E-4,-1.047197584E-4
6.300851000E0,4.694935866E-3,1.151917269E-3,2.094395168E-4
6.304849437E0,2.617993858E-3,2.094395168E-4,1.396263397E-4
6.308849437E0,-1.064650831E-3,-1.082104165E-3,-1.745329246E-5
6.312851000E0,-3.839724232E-3,-5.061454722E-4,-5.235987919E-5
6.316849437E0,-3.961897455E-3,-1.117010717E-3,8.203047328E-4
6.320849437E0,-8.203047328E-4,-8.203047328E-4,8.901178953E-4
6.324851000E0,3.438298590E-3,1.343903481E-3,3.141592606E-4
6.328851000E0,5.462880712E-3,2.216568217E-3,1.745329246E-5
6.332849437E0,4.328416660E-3,1.396263367E-3,-5.235987919E-5
6.336849437E0,-1.361356815E-3,2.792526793E-4,2.094395168E-4
6.340849437E0,-3.926991019E-3,-4.537856148E-4,1.396263397E-4
6.344851000E0,-4.572762642E-3,3.839724232E-4,-1.745329246E-5
6.348851000E0,-6.719517522E-3,6.335545331E-3,-5.235987919E-5
6.352851000E0,-8.028514567E-4,2.600540640E-3,3.665191471E-4
6.356849437E0,4.206243437E-3,2.705260413E-3,3.490658492E-5
6.360851000E0,1.033234876E-2,2.111848444E-3,-3.490658492E-5
6.364849437E0,4.694935866E-3,2.129301662E-3,-6.981316983E-5
6.368849437E0,2.094395168E-4,4.712388909E-4,2.094395168E-4
6.372849437E0,-6.806783844E-3,-1.466076588E-3,1.047197497E-3
6.376851000E0,-4.590216093E-3,0.000000000E0,2.094395168E-4
6.380849437E0,-1.745329238E-3,-5.235987483E-4,2.792526793E-4
6.384851000E0,7.853981806E-4,-6.981316983E-5,1.570796303E-4
6.388849437E0,4.014257342E-3,6.457717973E-4,-1.745329246E-5
6.392851000E0,3.351032268E-3,1.274090377E-3,-5.235987919E-5
6.396849437E0,1.570796303E-4,6.981316837E-4,2.094395168E-4
6.400849437E0,-3.211405827E-3,2.443460980E-4,-1.396263397E-4
6.404849437E0,-3.787364578E-3,-6.108652451E-4,-2.443460980E-4
6.408851000E0,-2.600540640E-3,-1.588249579E-3,-1.221730490E-4
6.412849437E0,2.617993741E-4,-6.457717973E-4,-3.839724232E-4
6.416849437E0,4.171337001E-3,-8.377580671E-4,-3.141592606E-4
6.420849437E0,5.654866807E-3,-1.570796303E-4,2.967059845E-4
6.424851000E0,2.722713631E-3,-5.585053586E-4,3.141592606E-4
6.428849437E0,-2.792526793E-4,-3.839724232E-4,6.108652451E-4
6.432849437E0,-3.176499158E-3,1.047197584E-4,8.726646047E-5
6.436851000E0,-2.443460980E-3,1.047197584E-4,4.014257283E-4
6.440851000E0,1.570796303E-4,-1.710422686E-3,3.490658492E-5
6.444849437E0,3.839724232E-4,-8.377580671E-4,-3.490658492E-5
6.448849437E0,2.251474652E-3,5.934119690E-4,-6.981316983E-5
6.452851000E0,6.056292448E-3,3.665191471E-4,2.094395168E-4
6.456849437E0,5.532693584E-3,7.504915702E-4,2.967059845E-4
6.460849437E0,-1.378810150E-3,2.617993741E-4,3.141592606E-4
6.464849437E0,-2.408554312E-3,8.901178953E-4,-2.617993741E-4
6.468851000E0,-2.827433404E-3,-4.363323096E-4,-2.792526793E-4
6.472849437E0,8.028514567E-4,1.291543595E-3,-1.326450263E-3
6.476849437E0,1.762782573E-3,8.552113432E-4,3.490658492E-5
6.480849437E0,3.368485486E-3,1.221730490E-4,6.981316837E-4
6.484851000E0,1.064650831E-3,-3.665191471E-4,5.585053586E-4
6.488849437E0,1.745329246E-5,-2.268928103E-3,6.806784077E-4
6.492849437E0,-8.203047328E-4,-9.773843922E-4,-1.745329246E-5
6.496849437E0,-2.426007763E-3,-3.490658492E-5,-6.981316983E-5
6.500851000E0,4.537856148E-4,-1.588249579E-3,-6.981316983E-5
6.504851000E0,1.745329246E-5,1.448623254E-3,-3.665191471E-4
6.508849437E0,2.146754880E-3,7.330382941E-4,-6.108652451E-4
6.512849437E0,2.111848444E-3,-4.712388909E-4,6.981316983E-5
6.516851000E0,5.934119690E-4,6.981316983E-5,-3.490658492E-5
6.520851000E0,2.443460980E-3,-3.822271014E-3,3.665191471E-4
6.524849437E0,5.410520826E-4,1.221730490E-4,3.490658492E-5
6.528849437E0,-1.762782573E-3,-4.886921961E-4,-4.886921961E-4
6.532851000E0,-1.221730490E-4,2.042035107E-3,-6.283185212E-4
6.536849437E0,1.832595677E-3,1.326450263E-3,-2.268928074E-4
6.540849437E0,-3.665191471E-4,1.466076588E-3,4.712388909E-4
6.544849437E0,8.726646047E-5,1.483529806E-3,8.203047328E-4
6.548849437E0,-3.665191471E-4,7.504915702E-4,4.363323096E-4
6.552849437E0,-1.396263367E-3,2.617993741E-4,-8.726646047E-5
6.556849437E0,-1.518436475E-3,2.792526793E-4,-2.268928074E-4
6.560849437E0,-1.082104165E-3,7.330382941E-4,-1.221730490E-4
6.564851000E0,-1.134464052E-3,-3.316125658E-4,-8.726646047E-5
6.568849437E0,1.256637042E-3,-1.745329246E-5,-6.981316983E-5
6.572849437E0,2.321287990E-3,-6.806784077E-4,-6.981316983E-5
6.576849437E0,2.600540640E-3,7.853981806E-4,3.665191471E-4
6.580849437E0,1.012290944E-3,-2.111848444E-3,6.283185212E-4
6.584849437E0,-1.029744279E-3,4.188790335E-4,-4.886921961E-4
6.588849437E0,-1.867502346E-3,4.712388909E-4,-1.745329209E-4
6.592849437E0,-8.726646192E-4,-2.234021435E-3,-1.047197584E-4
6.596849437E0,-9.250245057E-4,-1.256637042E-3,-3.839724232E-4
6.600849437E0,1.605702913E-3,4.712388909E-4,-3.141592606E-4
6.604849437E0,3.176499158E-3,1.692969352E-3,-1.396263397E-4
6.608851000E0,2.076941775E-3,2.007128671E-3,-8.726646047E-5
6.612849437E0,5.759586347E-4,8.901178953E-4,2.094395168E-4
6.616849437E0,-6.981316837E-4,-5.934119690E-4,5.934119690E-4
6.620849437E0,-7.330382941E-4,-1.745329238E-3,8.726646047E-5
6.624851000E0,-8.901178953E-4,-5.410520826E-4,-3.490658492E-5
6.628849437E0,2.617993741E-4,6.981316983E-5,5.235987483E-4
6.632849437E0,5.585053586E-4,2.268928074E-4,8.203047328E-4
6.636849437E0,1.553343027E-3,8.726646192E-4,1.396263397E-4
6.640851000E0,2.967059845E-4,7.504915702E-4,2.617993741E-4
6.644851000E0,-1.745329246E-5,1.047197584E-4,1.570796303E-4
6.648849437E0,-6.981316837E-4,-1.919862116E-4,-1.745329246E-5
6.652849437E0,-1.186823938E-3,-1.780235791E-3,2.268928074E-4
6.656851000E0,-7.155850180E-4,1.919862116E-4,1.396263397E-4
6.660849437E0,9.075712296E-4,2.617993741E-4,4.188790335E-4
6.664849437E0,3.438298590E-3,-1.745329246E-5,1.919862116E-4
6.668849437E0,-8.726646047E-5,1.431170036E-3,0.000000000E0
6.672851000E0,-8.726646192E-4,5.759586347E-4,2.268928074E-4
6.676851000E0,7.155850180E-4,-2.635447076E-3,1.396263397E-4
6.680849437E0,-1.413716702E-3,-2.268928103E-3,-1.570796303E-4
6.684849437E0,-1.204277156E-3,6.632251316E-4,3.316125658E-4
6.688851000E0,-1.012290944E-3,1.151917269E-3,6.108652451E-4
6.692849437E0,3.543018363E-3,3.490658419E-4,4.014257283E-4
6.696851000E0,6.457717973E-4,1.675516134E-3,4.886921961E-4
6.700849437E0,6.632251316E-4,2.443460980E-3,5.235987919E-5
6.704851000E0,9.773843922E-4,5.410520826E-4,-3.490658492E-5
6.708849437E0,2.094394993E-3,-2.478367416E-3,-3.665191471E-4
6.712851000E0,-1.064650831E-3,1.221730490E-3,-2.967059845E-4
6.716851000E0,2.268928074E-4,2.478367416E-3,1.570796303E-4
6.720851000E0,-9.424777818E-4,1.605702913E-3,1.221730490E-4
6.724849437E0,1.605702913E-3,2.879793290E-3,-1.745329246E-5
6.728849437E0,7.679448463E-4,3.385938704E-3,-5.235987919E-5
6.732849437E0,-3.490658492E-5,6.457717973E-4,-6.981316983E-5
6.736851000E0,-2.617993741E-4,3.839724232E-4,-3.665191471E-4
6.740849437E0,-1.570796303E-4,-1.221730490E-4,-1.204277156E-3
6.744849437E0,3.612831468E-3,-3.874630900E-3,-3.665191471E-4
6.748849437E0,1.588249579E-3,-2.600540640E-3,-1.570796303E-4
6.752849437E0,1.047197497E-3,-1.570796303E-4,3.490658419E-4
6.756851000E0,-8.552113432E-4,1.745329246E-5,9.250245057E-4
6.760849437E0,-3.333578818E-3,-3.665191471E-4,4.712388909E-4
6.764849437E0,-3.228859045E-3,-4.712388909E-4,2.094395168E-4
6.768851000E0,-3.490658492E-5,6.806784077E-4,2.792526793E-4
6.772849437E0,2.443460980E-3,1.745329238E-3,1.570796303E-4
6.776849437E0,2.495820867E-3,1.570796361E-3,-1.570796303E-4
6.780851000E0,8.377580671E-4,3.141592606E-4,-1.047197584E-4
6.784851000E0,-6.283185212E-4,-2.094394993E-3,5.235987919E-5
6.788849437E0,-4.171337001E-3,-1.221730490E-3,4.014257283E-4
6.792849437E0,-3.141592722E-3,-8.377580671E-4,6.283185212E-4
6.796851000E0,-1.518436475E-3,-1.343903481E-3,4.014257283E-4
6.800849437E0,4.450589418E-3,5.934119690E-4,-2.443460980E-4
6.804849437E0,8.744099177E-3,3.979350906E-3,-2.792526793E-4
6.808849437E0,4.293509759E-3,2.303834539E-3,6.108652451E-4
6.812851000E0,-1.989675453E-3,-6.981316983E-5,-3.490658492E-5
6.816849437E0,-4.520402756E-3,-1.745329238E-3,6.981316983E-5
6.820849437E0,-6.544984877E-3,-3.682644805E-3,4.014257283E-4
6.824849437E0,-4.520402756E-3,-8.726646192E-4,3.490658492E-5
6.828851000E0,3.385938704E-3,7.155850180E-4,-3.316125658E-4
6.832849437E0,6.789330859E-3,2.356194425E-3,-1.396263397E-4
6.836849437E0,5.445427261E-3,2.792526735E-3,-5.410520826E-4
6.840849437E0,1.308996929E-3,2.146754880E-3,-3.490658419E-4
6.844851000E0,-2.164208330E-3,-2.792526793E-4,-4.363323096E-4
6.848849437E0,-6.387905218E-3,-2.094394993E-3,2.617993741E-4
6.852849437E0,-5.375613924E-3,-1.675516134E-3,0.000000000E0
6.856849437E0,2.391101094E-3,-2.757620299E-3,3.839724232E-4
6.860851000E0,6.248278543E-3,-2.007128671E-3,7.853981806E-4
6.864849437E0,6.946410518E-3,5.759586347E-4,2.967059845E-4
6.868849437E0,4.118977115E-3,-3.665191471E-4,6.108652451E-4
6.872849437E0,1.867502346E-3,-3.351032268E-3,4.014257283E-4
6.876851000E0,-2.460914198E-3,-8.028514567E-4,-4.014257283E-4
6.880849437E0,-4.206243437E-3,-7.330382941E-4,-6.108652451E-4
6.884849437E0,-1.937315450E-3,-1.221730490E-4,-2.094395168E-4
6.888849437E0,5.934119690E-4,-1.047197584E-4,-2.617993741E-4
6.892851000E0,3.211405827E-3,6.283185212E-4,-2.617993741E-4
6.896851000E0,4.799655639E-3,8.377580671E-4,-2.792526793E-4
6.900851000E0,1.745329238E-3,1.029744279E-3,1.570796303E-4
6.904849437E0,-1.884955564E-3,-1.047197584E-4,1.029744279E-3
6.908851000E0,-2.844886621E-3,3.490658492E-5,1.919862116E-4
6.912849437E0,-2.495820867E-3,2.268928074E-4,-2.967059845E-4
6.916851000E0,5.759586347E-4,-7.679448463E-4,-2.792526793E-4
6.920849437E0,3.525565146E-3,-1.343903481E-3,1.570796303E-4
6.924851000E0,6.073745899E-3,9.250245057E-4,-3.141592606E-4
6.928849437E0,3.281218931E-3,-4.363323096E-4,-1.396263397E-4
6.932849437E0,3.316125600E-3,-3.054326167E-3,1.919862116E-4
6.936851000E0,-4.782202188E-3,-2.373647876E-3,1.396263397E-4
6.940851000E0,1.221730490E-4,-4.782202188E-3,-1.745329246E-5
6.944849437E0,6.981316983E-5,-5.585053586E-4,-6.632251316E-4
6.948849437E0,8.203047328E-4,5.061454722E-4,-2.268928074E-4
6.952851000E0,-9.424777818E-4,1.256637042E-3,1.745329246E-5
6.956851000E0,1.588249579E-3,2.042035107E-3,-5.235987919E-5
6.960849437E0,2.583087189E-3,8.901178953E-4,-6.981316983E-5
6.964849437E0,-4.712388909E-4,-2.967059845E-4,-6.981316983E-5
6.968851000E0,-5.480333697E-3,1.169370604E-3,-6.981316983E-5
6.972851000E0,-4.101523664E-3,1.431170036E-3,-6.981316983E-5
6.976849437E0,-4.188790335E-4,1.640609466E-3,-6.981316983E-5
6.980849437E0,2.478367416E-3,2.600540640E-3,-5.235987483E-4
6.984851000E0,3.281218931E-3,1.012290944E-3,2.443460980E-4
6.988849437E0,3.438298590E-3,-2.059488557E-3,1.396263397E-4
6.992849437E0,8.028514567E-4,-3.141592606E-4,2.617993741E-4
6.996849437E0,-9.424777818E-4,0.000000000E0,0.000000000E0
7.000851000E0,-4.869468510E-3,1.919862116E-4,-6.457717973E-4
7.004849437E0,-2.879793290E-3,-4.537856148E-4,-5.235987483E-4
7.008849437E0,9.599310579E-4,3.839724232E-4,8.377580671E-4
7.012849437E0,4.066617228E-3,-4.363323096E-4,6.108652451E-4
7.016851000E0,4.712388851E-3,5.410520826E-4,6.981316837E-4
7.020849437E0,5.235987483E-4,-2.617993858E-3,1.012290944E-3
7.024849437E0,-6.981316837E-4,4.014257283E-4,5.235987919E-5
7.028849437E0,-1.483529806E-3,6.108652451E-4,6.981316837E-4
7.032851000E0,-1.692969352E-3,3.665191471E-4,-1.745329209E-4
7.036851000E0,-5.410520826E-4,7.853981806E-4,-6.981316837E-4
7.040849437E0,1.919862116E-4,-4.712388909E-4,-5.410520826E-4
7.044849437E0,5.410520826E-4,-8.028514567E-4,-5.235987919E-5
7.048851000E0,3.316125658E-4,4.537856148E-4,6.981316983E-5
7.052849437E0,-9.075712296E-4,1.745329209E-4,-3.490658492E-5
7.056849437E0,-1.239183708E-3,-1.239183708E-3,2.268928074E-4
7.060849437E0,-1.221730490E-4,-5.410520826E-4,1.396263397E-4
7.064851000E0,-1.483529806E-3,1.570796361E-3,-7.679448463E-4
7.068849437E0,2.809980186E-3,-2.617993741E-4,-4.014257283E-4
7.072849437E0,2.146754880E-3,7.330382941E-4,-6.108652451E-4
7.076849437E0,4.537856148E-4,8.552113432E-4,2.268928074E-4
7.080851000E0,1.570796303E-4,3.141592722E-3,-4.363323096E-4
7.084849437E0,-2.094395168E-4,-4.537856148E-4,5.585053586E-4
7.088849437E0,4.363323096E-4,-8.028514567E-4,-5.235987919E-5
7.092849437E0,-1.221730490E-4,-1.029744279E-3,-2.268928074E-4
7.096851000E0,-1.221730490E-4,2.443460980E-4,-1.047197584E-4
7.100849437E0,1.570796303E-4,-1.745329246E-5,-8.726646047E-5
7.104851000E0,5.410520826E-4,5.235987919E-5,1.256637042E-3
7.108851000E0,1.378810150E-3,-3.490658419E-4,2.617993741E-4
7.112851000E0,5.585053586E-4,-6.283185212E-4,4.537856148E-4
7.116849437E0,4.886921961E-4,5.235987919E-5,3.490658419E-4
7.120849437E0,-1.466076588E-3,5.235987483E-4,4.712388909E-4
7.124851000E0,-1.082104165E-3,1.919862116E-4,2.094395168E-4
7.128849437E0,-6.981316983E-5,2.617993741E-4,0.000000000E0
7.132849437E0,4.712388909E-4,5.759586347E-4,-5.235987919E-5
7.136849437E0,-1.221730490E-4,3.665191471E-4,-6.981316983E-5
7.140851000E0,-4.363323096E-4,2.967059845E-4,-6.981316983E-5
7.144851000E0,6.981316983E-5,2.967059845E-4,-6.981316983E-5
7.148849437E0,6.981316983E-5,-2.967059845E-4,-5.235987483E-4
7.152849437E0,3.665191471E-4,-1.570796303E-4,5.410520826E-4
7.156851000E0,0.000000000E0,1.745329209E-4,-5.235987919E-5
7.160851000E0,1.099557383E-3,2.617993741E-4,-2.268928074E-4
7.164849437E0,3.316125658E-4,-4.537856148E-4,1.745329209E-4
7.168849437E0,-4.537856148E-4,2.268928074E-4,8.726646192E-4
7.172851000E0,2.268928074E-4,4.188790335E-4,7.679448463E-4
7.176851000E0,-3.316125658E-4,1.745329246E-5,1.396263397E-4
7.180849437E0,5.585053586E-4,6.981316983E-5,-7.679448463E-4
7.184849437E0,3.490658492E-5,2.268928074E-4,-6.981316837E-4
7.188851000E0,-8.726646047E-5,2.792526793E-4,5.235987919E-5
7.192851000E0,-1.221730490E-4,2.792526793E-4,2.443460980E-4
7.196849437E0,-1.221730490E-4,-6.108652451E-4,-1.396263397E-4
7.200849437E0,-1.221730490E-4,-2.268928074E-4,-2.443460980E-4
7.204851000E0,-1.221730490E-4,0.000000000E0,3.141592606E-4
7.208849437E0,-1.221730490E-4,3.665191471E-4,4.712388909E-4
7.212849437E0,-1.221730490E-4,-2.792526793E-4,-2.268928074E-4
7.216849437E0,7.504915702E-4,1.396263397E-4,-2.617993741E-4
7.220851000E0,8.726646047E-5,-3.490658492E-5,-1.221730490E-4
7.224849437E0,3.665191471E-4,5.235987919E-5,1.919862116E-4
7.228849437E0,-2.967059845E-4,2.268928074E-4,1.396263397E-4
7.232849437E0,-3.316125658E-4,-1.745329246E-5,-4.712388909E-4
7.236851000E0,4.014257283E-4,5.235987919E-5,-1.745329209E-4
7.240849437E0,7.504915702E-4,3.839724232E-4,3.316125658E-4
7.244851000E0,-5.235987919E-5,4.537856148E-4,1.745329246E-5
7.248849437E0,-7.155850180E-4,-1.047197584E-4,-5.061454722E-4
7.252851000E0,2.967059845E-4,-1.605702913E-3,-6.283185212E-4
7.256849437E0,-1.745329246E-5,-1.919862116E-4,-2.268928074E-4
7.260849437E0,-6.981316837E-4,3.141592606E-4,-1.047197584E-4
7.264849437E0,-5.759586347E-4,2.967059845E-4,3.490658419E-4
7.268851000E0,1.099557383E-3,-1.396263397E-4,-2.617993741E-4
7.272849437E0,3.316125658E-4,1.745329209E-4,-2.792526793E-4
7.276849437E0,7.330382941E-4,1.762782573E-3,-1.221730490E-4
7.280851000E0,-2.094395168E-4,2.321287990E-3,-3.839724232E-4
7.284851000E0,-2.111848444E-3,8.203047328E-4,-3.141592606E-4
7.288849437E0,-1.850049011E-3,-4.537856148E-4,1.396263397E-4
7.292849437E0,3.455751808E-3,-1.926843449E-2,1.221730490E-4
7.296851000E0,5.201081280E-3,-5.450663343E-2,-2.129301662E-3
7.300849437E0,-7.644542027E-3,-2.218313515E-2,-1.361356815E-3
7.304849437E0,1.396263391E-2,-1.090830751E-2,7.853981806E-4
7.308849437E0,7.504915819E-3,4.839798063E-2,2.391101094E-3
7.312851000E0,-1.167625282E-2,5.988224596E-2,2.670353744E-3
7.316851000E0,-3.897320107E-2,-2.338741161E-2,9.250245057E-4
7.320849437E0,-2.492330223E-2,9.093165398E-3,1.378810150E-3
7.324849437E0,2.049016580E-2,2.986258268E-2,1.343903481E-3
7.328851000E0,2.698278986E-2,4.445353523E-2,2.687806962E-3
7.332849437E0,6.108652451E-4,-4.206243437E-3,1.396263367E-3
7.336849437E0,-1.773254573E-2,-3.319616243E-2,8.901178953E-4
7.340849437E0,9.669124149E-3,-1.204277156E-3,-1.221730490E-4
7.344851000E0,3.075270168E-2,2.654645778E-2,-6.981316837E-4
7.348849437E0,1.879719645E-2,5.689773243E-3,-1.884955564E-3
7.352849437E0,-7.539822254E-3,-2.844886668E-2,-3.560471581E-3
7.356849437E0,-8.569566533E-3,-1.024508290E-2,-2.181661548E-3
7.360851000E0,-2.094395168E-4,1.516691130E-2,-1.745329209E-4
7.364849437E0,-1.021017600E-2,5.724680144E-3,9.424777818E-4
7.368849437E0,-1.797689125E-2,-2.089159191E-2,4.886921961E-4
7.372849437E0,-2.251474652E-3,-1.174606569E-2,5.235987919E-5
7.376851000E0,2.052507177E-2,1.869247667E-2,1.151917269E-3
7.380849437E0,2.169444226E-2,1.190314535E-2,3.839724232E-4
7.384851000E0,2.391101094E-3,-8.272860199E-3,3.490658492E-5
7.388849437E0,-1.226966456E-2,-8.726646192E-3,-4.886921961E-4
7.392851000E0,-5.567600485E-3,9.424777818E-4,-6.283185212E-4
7.396849437E0,-6.963863503E-3,1.221730490E-3,-2.268928074E-4
7.400849437E0,-4.485496320E-3,-3.211405827E-3,-1.047197584E-4
7.404849437E0,2.268928074E-4,-1.832595677E-3,-8.726646047E-5
7.408851000E0,4.171337001E-3,9.215338156E-3,6.632251316E-4
7.412849437E0,3.839724232E-4,2.792526735E-3,2.617993741E-4
7.416851000E0,-6.003932562E-3,-5.375613924E-3,2.967059845E-4
7.420849437E0,-2.426007763E-3,-5.934119690E-4,1.570796303E-4
7.424851000E0,4.223696887E-3,5.183627829E-3,4.188790335E-4
7.428849437E0,6.265731994E-3,3.525565146E-3,3.490658492E-5
7.432849437E0,2.583087189E-3,-2.460914198E-3,2.443460980E-4
7.436849437E0,1.047197584E-4,-2.076941775E-3,-1.396263397E-4
7.440851000E0,-2.146754880E-3,2.967059612E-3,-2.443460980E-4
7.444849437E0,-7.435102481E-3,-9.424777818E-4,4.712388909E-4
7.448849437E0,-9.110618383E-3,-8.307767101E-3,5.061454722E-4
7.452851000E0,-3.385938704E-3,-1.570796303E-4,3.665191471E-4
7.456851000E0,5.480333697E-3,9.965829551E-3,4.886921961E-4
7.460849437E0,4.799655639E-3,7.487462368E-3,5.061454722E-4
7.464849437E0,-2.757620299E-3,1.413716702E-3,6.981316983E-5
7.468851000E0,-5.794493016E-3,-3.019419499E-3,-3.490658492E-5
7.472851000E0,-4.014257342E-3,-4.188790335E-4,-6.981316983E-5
7.476849437E0,-8.377580671E-4,4.607669078E-3,8.203047328E-4
7.480849437E0,2.076941775E-3,9.773843922E-4,4.363323096E-4
7.484851000E0,3.141592722E-3,-1.780235791E-3,1.919862116E-4
7.488849437E0,3.420845373E-3,1.553343027E-3,4.363323096E-4
7.492849437E0,1.535889693E-3,9.250245057E-4,5.235987919E-5
7.496849437E0,-1.954768784E-3,-1.029744279E-3,-3.316125658E-4
7.500851000E0,-3.909537569E-3,-4.433136433E-3,-2.967059845E-4
7.504851000E0,-5.235987483E-4,-4.712388909E-4,-4.363323096E-4
7.508851000E0,2.635447076E-3,5.654866807E-3,-3.141592606E-4
7.512849437E0,1.186823938E-3,1.850049011E-3,-1.396263397E-4
7.516851000E0,-2.635447076E-3,-3.368485486E-3,-8.726646047E-5
7.520849437E0,-2.617993858E-3,-2.024581889E-3,-6.981316983E-5
7.524849437E0,5.078908056E-3,4.049163777E-3,-6.981316983E-5
7.528849437E0,6.946410518E-3,2.478367416E-3,-6.981316983E-5
7.532852562E0,1.710422686E-3,-1.535889693E-3,2.094395168E-4
7.536852562E0,-1.448623254E-3,-3.804817796E-3,1.396263397E-4
7.540851000E0,-2.443460980E-3,-3.141592606E-4,1.221730490E-4
7.544849437E0,-4.642575979E-3,1.221730490E-4,-1.745329246E-5
7.548851000E0,-4.625122529E-3,-3.054326167E-3,6.806784077E-4
7.552849437E0,-9.948377265E-4,-2.530727303E-3,5.585053586E-4
7.556852562E0,4.293509759E-3,2.111848444E-3,6.981316983E-5
7.560851000E0,4.782202188E-3,3.926991019E-3,-3.316125658E-4
7.564851000E0,3.403391922E-3,4.886921961E-4,-5.934119690E-4
7.568851000E0,1.221730490E-3,-3.717551241E-3,-3.665191471E-4
7.572851000E0,6.230825558E-3,1.396263397E-4,-5.934119690E-4
7.576849437E0,4.694935866E-3,-5.061454722E-4,2.268928074E-4
7.580851000E0,9.599310579E-4,8.377580671E-4,0.000000000E0
7.584849437E0,-2.251474652E-3,-2.967059845E-4,-5.235987919E-5
7.588849437E0,-7.155850064E-3,-9.075712296E-4,-6.981316983E-5
7.592849437E0,-9.040805511E-3,-1.378810150E-3,-8.203047328E-4
7.596851000E0,-5.462880712E-3,-2.792526793E-4,-4.188790335E-4
7.600849437E0,-1.972222002E-3,2.792526793E-4,-1.570796303E-4
7.604849437E0,-1.570796303E-4,7.330382941E-4,-1.047197584E-4
7.608851000E0,9.075712296E-4,-3.490658492E-5,-8.726646047E-5
7.612851000E0,-1.570796303E-4,6.457717973E-4,-6.981316983E-5
7.616849437E0,-4.188789986E-3,2.635447076E-3,-6.981316983E-5
7.620849437E0,-1.082104165E-2,2.565633971E-3,-6.981316983E-5
7.624851000E0,-1.541125681E-2,0.000000000E0,2.094395168E-4
7.628851000E0,-1.466076542E-2,-8.726646047E-5,1.396263397E-4
7.632849437E0,-4.834562074E-3,6.352998316E-3,4.188790335E-4
7.636849437E0,1.797689125E-3,1.061160211E-2,3.490658492E-5
7.640851000E0,-3.665191471E-4,6.597344764E-3,-3.490658492E-5
7.644851000E0,-6.667157635E-3,-3.036872949E-3,3.665191471E-4
7.648849437E0,-5.759586580E-3,-2.076941775E-3,-4.014257283E-4
7.652849437E0,-3.996803891E-3,1.186823938E-3,-1.570796303E-4
7.656851000E0,-2.443460980E-4,-5.235987483E-4,-1.047197584E-4
7.660849437E0,1.171115879E-2,-7.731808349E-3,5.235987919E-5
7.664849437E0,1.469567232E-2,-3.612831468E-3,-1.919862116E-4
7.668849437E0,2.120575123E-2,-1.221730490E-4,3.316125658E-4
7.672851000E0,1.506219152E-2,-1.605702913E-3,4.712388909E-4
7.676849437E0,8.168140426E-3,-5.462880712E-3,-1.431170036E-3
7.680849437E0,5.340707488E-3,-5.131267942E-3,-7.330382941E-4
7.684849437E0,6.544984877E-3,-1.553343027E-3,1.919862116E-4
7.688851000E0,9.878563695E-3,-4.398229532E-3,0.000000000E0
7.692849437E0,1.090830751E-2,-5.288347602E-3,-5.235987919E-5
7.696849437E0,1.010545623E-2,-3.874630900E-3,-8.203047328E-4
7.700849437E0,7.051130291E-3,-9.250245057E-4,-1.326450263E-3
7.704851000E0,-1.256637042E-3,-1.221730490E-3,-4.014257283E-4
7.708851000E0,-8.255407214E-3,-4.764748737E-3,-1.570796303E-4
7.712849437E0,-9.930923581E-3,-4.363323096E-4,-8.726646047E-5
7.716849437E0,-8.866272867E-3,2.670353744E-3,-8.726646047E-5
7.720851000E0,-6.161012221E-3,-2.094394993E-3,-5.235987483E-4
7.724849437E0,-5.235987919E-5,-2.286381321E-3,2.443460980E-4
7.728849437E0,7.400196046E-3,1.256637042E-3,0.000000000E0
7.732849437E0,7.400196046E-3,4.607669078E-3,3.839724232E-4
7.736851000E0,2.129301662E-3,-1.867502346E-3,-5.585053586E-4
7.740849437E0,-4.363323096E-3,-5.986479111E-3,-1.553343027E-3
7.744849437E0,-4.398229532E-3,-1.500983140E-3,-1.221730490E-3
7.748849437E0,-1.989675453E-3,3.281218931E-3,-3.665191471E-4
7.752851000E0,-1.815142459E-3,2.583087189E-3,1.396263397E-4
7.756849437E0,-8.726646192E-4,-1.500983140E-3,8.726646192E-4
7.760851000E0,1.012290944E-3,1.762782573E-3,1.064650831E-3
7.764849437E0,3.176499158E-3,4.136430100E-3,3.665191471E-4
7.768851000E0,1.326450263E-3,-7.853981806E-4,-8.552113432E-4
7.772849437E0,-1.256637042E-3,-4.502949305E-3,-5.759586347E-4
7.776849437E0,3.141592606E-4,-1.710422686E-3,-3.490658419E-4
7.780851000E0,1.780235791E-3,6.632251316E-4,2.792526793E-4
7.784851000E0,1.256637042E-3,-5.235987919E-5,0.000000000E0
7.788849437E0,-9.599310579E-4,8.028514567E-4,2.268928074E-4
7.792849437E0,6.981316983E-5,7.155850180E-4,5.934119690E-4
7.796851000E0,-5.061454722E-4,3.403391922E-3,1.134464052E-3
7.800849437E0,-3.839724232E-3,1.413716702E-3,5.410520826E-4
7.804849437E0,-5.009094719E-3,-6.108652451E-4,6.981316983E-5
7.808849437E0,-9.599310579E-4,7.853981806E-4,-3.490658492E-5
7.812851000E0,3.857177682E-3,5.235987715E-3,9.773843922E-4
7.816849437E0,2.705260413E-3,5.044001620E-3,7.853981806E-4
7.820849437E0,0.000000000E0,3.316125658E-4,2.967059845E-4
7.824851000E0,-2.652900526E-3,-7.504915702E-4,-5.759586347E-4
7.828851000E0,-1.535889693E-3,-1.221730490E-4,-8.028514567E-4
7.832849437E0,-6.056292448E-3,5.602506921E-3,-8.726646192E-4
7.836849437E0,-1.685987972E-2,8.133234456E-3,-7.330382941E-4
7.840849437E0,-2.979277074E-2,1.183333248E-2,-2.443460980E-4
7.844851000E0,-3.047344834E-2,2.371902391E-2,7.679448463E-4
7.848849437E0,-1.404990070E-2,3.986331820E-2,1.343903481E-3
7.852849437E0,-3.275983036E-2,-2.548180753E-3,4.363323096E-4
7.856849437E0,-2.724459022E-2,-3.773401678E-2,-1.448623254E-3
7.860851000E0,1.385791413E-2,3.410373256E-2,-4.363323096E-4
7.864849437E0,1.939060725E-2,3.803072497E-2,1.221730490E-4
7.868849437E0,-2.994984947E-2,-1.755801216E-2,-1.832595677E-3
7.872849437E0,-2.994984947E-2,-2.207841538E-2,-1.134464052E-3
7.876851000E0,3.961897455E-3,2.698278986E-2,-3.490658419E-4
7.880849437E0,1.106538717E-2,2.026327327E-2,2.967059845E-4
7.884849437E0,-4.886921961E-3,-2.635447076E-3,-1.221730490E-4
7.888849437E0,-9.512044489E-3,-7.260569837E-3,5.235987919E-5
7.892851000E0,-5.288347602E-3,2.687806962E-3,-3.490658492E-5
7.896849437E0,-1.780235791E-3,3.316125600E-3,-6.981316983E-5
7.900849437E0,3.490658477E-3,5.742133129E-3,-6.981316983E-5
7.904849437E0,-6.632251316E-4,6.632251316E-4,-3.665191471E-4
7.908851000E0,-8.709193207E-3,-4.433136433E-3,-2.967059845E-4
7.912849437E0,-6.736970972E-3,1.588249579E-3,1.570796303E-4
7.916849437E0,-1.396263367E-3,7.260569837E-3,4.188790335E-4
7.920849437E0,-3.612831468E-3,-1.186823938E-3,6.457717973E-4
7.924849437E0,-7.365289610E-3,-4.607669078E-3,4.014257283E-4
7.928849437E0,-4.118977115E-3,4.258603323E-3,1.099557383E-3
7.932849437E0,-5.078908056E-3,1.186823938E-3,1.727875904E-3
7.936849437E0,-5.201081280E-3,2.164208330E-3,6.806784077E-4
7.940851000E0,-2.042035107E-3,1.989675453E-3,1.047197584E-4
7.944849437E0,-3.333578818E-3,3.438298590E-3,1.012290944E-3
7.948849437E0,-3.071779385E-3,4.258603323E-3,1.710422686E-3
7.952851000E0,-2.687806962E-3,1.937315450E-3,1.431170036E-3
7.956851000E0,-8.639379404E-3,1.780235791E-3,2.565633971E-3
7.960849437E0,-4.607669078E-3,4.276056774E-3,1.361356815E-3
7.964849437E0,-6.998770405E-3,6.911503617E-3,1.186823938E-3
7.968851000E0,-9.756390937E-3,2.321287990E-3,4.014257283E-4
7.972849437E0,-3.525565146E-3,-2.199114766E-3,-5.410520826E-4
7.976849437E0,-1.029744279E-3,4.747295752E-3,-5.061454722E-4
7.980851000E0,-2.460914198E-3,1.919862116E-3,-1.919862116E-4
7.984851000E0,-3.333578818E-3,-1.518436475E-3,-1.047197584E-4
7.988849437E0,-5.916666240E-3,2.216568217E-3,-9.773843922E-4
7.992849437E0,-1.640609466E-3,9.250245057E-4,-6.108652451E-4
7.996849437E0,8.203047328E-4,4.974188283E-3,-6.981316983E-5
8.000851000E0,1.308996929E-3,5.742133129E-3,-2.268928074E-4
8.004849437E0,-2.303834539E-3,3.351032268E-3,1.745329209E-4
8.008849437E0,-2.652900526E-3,2.443460980E-3,4.363323096E-4
8.012849437E0,3.857177682E-3,4.293509759E-3,4.886921961E-4
8.016851000E0,3.909537569E-3,2.844886621E-3,9.599310579E-4
8.020851000E0,-4.188789986E-3,-1.274090377E-3,1.745329209E-4
8.024849437E0,-2.984513063E-3,-8.726646192E-4,7.330382941E-4
8.028849437E0,1.815142459E-3,8.901178953E-4,2.792526793E-4
8.032851000E0,-8.028514567E-4,6.161012221E-3,6.108652451E-4
