"Time (s)","Linear Acceleration x (m/s^2)","Linear Acceleration y (m/s^2)","Linear Acceleration z (m/s^2)"
7.939491000E-3,-1.731999964E-1,-4.777999818E-1,3.814999759E-1
1.793949100E-2,2.199999988E-2,-6.300000008E-3,-3.452000022E-1
2.793949100E-2,2.180000022E-2,7.989999652E-2,-2.176999897E-1
3.793949100E-2,3.299999982E-2,6.459999830E-2,3.689999878E-2
4.793949100E-2,2.829999849E-2,6.570000201E-2,9.559999406E-2
5.793949100E-2,4.039999843E-2,-2.199999988E-3,1.048999950E-1
6.793949100E-2,-3.280000016E-2,-2.620000020E-2,9.539999813E-2
7.793949100E-2,3.000000026E-3,-7.449999452E-2,-4.900000058E-3
8.793949100E-2,-1.469999924E-2,1.249999925E-2,-2.302999943E-1
9.793949100E-2,-3.119999915E-2,2.060000040E-2,-3.281999826E-1
1.079394910E-1,1.023999974E-1,6.570000201E-2,-4.655999839E-1
1.179394910E-1,1.366000026E-1,8.989999443E-2,-5.442000031E-1
1.279394910E-1,-7.009999454E-2,7.180000097E-2,-1.306999922E-1
1.379394910E-1,-4.769999906E-2,8.389999717E-2,3.107999861E-1
1.479394910E-1,-6.390000135E-2,1.680999994E-1,3.799999952E-1
1.579394910E-1,-4.479999840E-2,9.279999882E-2,-1.899999916E-3
1.679394910E-1,-1.349999942E-2,4.899999872E-2,-1.682000011E-1
1.779394910E-1,3.529999778E-2,-1.402999908E-1,-3.348999918E-1
1.879394910E-1,7.679999620E-2,-5.489999801E-2,-4.228999913E-1
1.979394910E-1,-4.429999739E-2,1.439999975E-2,-1.477999985E-1
2.079394910E-1,-3.489999771E-1,-3.816999793E-1,-2.451999933E-1
2.179394910E-1,2.495999932E-1,4.608999789E-1,1.176999956E-1
2.279394910E-1,1.045999974E-1,1.432999969E-1,6.861999631E-1
2.379394910E-1,-4.580000043E-2,4.779999703E-2,3.134000003E-1
2.479394910E-1,-6.069999933E-2,4.839999974E-2,-1.764999926E-1
2.579394910E-1,-1.079999935E-2,-3.079999983E-2,-2.646999955E-1
2.679394910E-1,3.610000014E-2,1.523000002E-1,-2.060000002E-1
2.779394910E-1,-6.159999967E-2,5.379999802E-2,-5.889999866E-2
2.879394910E-1,9.099999443E-3,-1.290999949E-1,2.939999849E-2
2.979394910E-1,1.166999936E-1,-2.707000077E-1,2.929999866E-2
3.079394910E-1,-2.209999971E-2,-3.280000016E-2,-7.859999686E-2
3.179394910E-1,2.363999933E-1,7.699999958E-3,7.347999811E-1
3.279394910E-1,-1.473999918E-1,2.445999980E-1,1.959899902E0
3.379394910E-1,-2.531999946E-1,-9.820999503E-1,-1.179799914E0
3.479394910E-1,2.069999874E-1,5.637999773E-1,-9.742999673E-1
3.579394910E-1,1.009999961E-2,3.696999848E-1,2.712999880E-1
3.679394910E-1,-1.225999966E-1,5.263000131E-1,1.153100014E0
3.779394910E-1,1.472000033E-1,7.351999879E-1,2.395999879E-1
3.879394910E-1,2.398999929E-1,1.158599973E0,-6.589999795E-2
3.979394910E-1,2.078000009E-1,1.658599973E0,-2.446999997E-1
4.079394910E-1,4.059999809E-2,1.886699915E0,-1.110100031E0
4.179394910E-1,3.099999856E-3,1.969699979E0,-1.083099961E0
4.279394910E-1,-2.290000021E-2,2.539399862E0,-2.514999807E-1
4.379394910E-1,1.319999993E-1,2.440199852E0,5.695999861E-1
4.479394910E-1,1.490999907E-1,2.747299910E0,8.202999830E-1
4.579394910E-1,5.048999786E-1,3.517599821E0,-9.579999745E-2
4.679394910E-1,9.864999652E-1,4.286600113E0,-7.170999646E-1
4.779394910E-1,1.408100009E0,4.370399952E0,-7.440000027E-2
4.879394910E-1,7.835999727E-1,4.707499981E0,2.236000001E-1
4.979394910E-1,-2.364999950E-1,4.679199696E0,1.191999987E-1
5.079394910E-1,-1.578499913E0,4.742899895E0,1.310999990E-1
5.179394910E-1,-2.716799974E0,4.801799774E0,4.615999758E-1
5.279394910E-1,-2.851399899E0,4.566499710E0,1.496599913E0
5.379394910E-1,-2.071799994E0,3.972999811E0,5.992999673E-1
5.479394910E-1,-2.926000059E-1,3.234099865E0,-8.944999576E-1
5.579394910E-1,8.535999656E-1,3.683099985E0,-1.779699922E0
5.679394910E-1,1.652300000E0,3.640499830E0,-2.489599943E0
5.779394910E-1,9.736999869E-1,3.674099922E0,-1.957699895E0
5.879394910E-1,3.146999776E-1,3.139999866E0,4.943999946E-1
5.979394910E-1,-6.419000030E-1,2.057600021E0,1.516299963E0
6.079394910E-1,-2.099299908E0,2.318399906E0,1.205600023E0
6.179394910E-1,-2.249899864E0,2.734499931E0,9.735999703E-1
6.279394910E-1,-1.556299925E0,1.617599964E0,1.643000007E0
6.379394910E-1,-6.042999625E-1,-5.619999766E-2,-2.002300024E0
6.479394910E-1,-7.889999449E-2,2.725600004E0,-2.297699928E0
6.579394910E-1,8.297999501E-1,1.189899921E0,-1.378099918E0
6.679394910E-1,-2.020999938E-1,1.944399953E0,-2.809999883E-2
6.779394910E-1,9.979999810E-2,1.352399945E0,-2.827000022E-1
6.879394910E-1,-5.898000002E-1,2.248699903E0,9.942999482E-1
6.979394910E-1,-5.619999766E-1,3.335999846E-1,3.575199842E0
7.079394910E-1,-3.429999948E-1,-3.825999796E-1,1.452499986E0
7.179394910E-1,-4.444999993E-1,7.040999532E-1,-2.164399862E0
7.279394910E-1,3.306999803E-1,1.010399938E0,-3.182699919E0
7.379394910E-1,1.049499989E0,-3.429999948E-2,-2.531800032E0
7.479394910E-1,2.799999900E-3,1.864999980E-1,-2.480999976E-1
7.579394910E-1,-6.179000139E-1,-3.704999983E-1,2.789099932E0
7.679394910E-1,-9.346999526E-1,-2.551499844E0,2.028999925E-1
7.779394910E-1,-1.562600017E0,1.922999918E-1,-3.026799917E0
7.879394910E-1,1.031599998E0,1.848599911E0,-4.149399757E0
7.979394910E-1,1.269599915E0,-2.304999977E-1,1.212999940E0
8.079394910E-1,7.177999616E-1,-1.260000020E-1,3.770799875E0
8.179394910E-1,6.171000004E-1,-2.020999938E-1,4.190599918E0
8.279394910E-1,4.468999803E-1,-1.236199975E0,2.274499893E0
8.379394910E-1,-5.629999638E-1,-5.529999733E-2,-2.616600037E0
8.479394910E-1,2.689999901E-2,-2.029999904E-2,-5.253799915E0
8.579394910E-1,-7.222999930E-1,1.015999988E-1,-3.536599874E0
8.679410540E-1,-3.564999998E-1,9.995999932E-1,1.176699996E0
8.779394910E-1,-8.021000028E-1,-1.193699956E0,4.685199738E0
8.879394910E-1,3.172999918E-1,-1.273999929E0,3.365599871E0
8.979394910E-1,7.558000088E-1,1.099999994E-1,-1.063799977E0
9.079394910E-1,1.796899915E0,6.597999930E-1,-4.896599770E0
9.179394910E-1,4.628999829E-1,5.099999905E-2,2.992999852E-1
9.279394910E-1,-3.868999779E-1,-1.607100010E0,2.420399904E0
9.379394910E-1,-1.319399953E0,-4.304999828E0,-3.402199984E0
9.479394910E-1,-3.247399807E0,-9.519000053E-1,-6.133299828E0
9.579394910E-1,-2.227699995E0,-1.917099953E0,-3.619299889E0
9.679394910E-1,-2.179899931E0,2.898299932E0,8.536999822E-1
9.779394910E-1,6.570000052E-1,-1.993299961E0,4.920000076E0
9.879394910E-1,1.968699932E0,-1.161599994E0,3.778199911E0
9.979394910E-1,1.297699928E0,1.208199978E0,-2.495699883E0
1.007939491E0,3.819999844E-2,1.248199940E0,-3.814899921E0
1.017939491E0,-1.865999937E0,9.290999770E-1,-1.785999984E-1
1.027939491E0,-2.232100010E0,-9.461999536E-1,3.243700027E0
1.037939491E0,-1.846599936E0,-8.996999860E-1,9.581999779E-1
1.047939491E0,-2.030900002E0,8.411999941E-1,-4.022500038E0
1.057939491E0,-2.202800035E0,2.541999817E-1,-2.012599945E0
1.067939491E0,-3.239899874E0,3.289999813E-2,5.063399792E0
1.077939491E0,6.730999947E-1,-2.468199968E0,3.657799959E0
1.087939491E0,1.521099925E0,-4.705999792E-1,-3.398399830E0
1.097939491E0,2.200799942E0,-1.639000028E-1,-7.741099834E0
1.107939491E0,1.323300004E0,7.313999534E-1,-4.230899811E0
1.117939491E0,1.158599973E0,-4.397599697E0,3.104099989E0
1.127939491E0,-1.587199926E0,-4.684999943E0,3.696799994E0
1.137939491E0,-7.576999664E-1,-4.451900005E0,1.613799930E0
1.147939491E0,9.820000082E-2,-3.971799850E0,-2.974999845E-1
1.157939491E0,2.252999991E-1,-4.469899654E0,4.591999948E-1
1.167939491E0,-4.658999741E-1,-7.083600044E0,4.433999956E-1
1.177939491E0,-8.669999838E-1,-4.831799984E0,-4.780099869E0
1.187939491E0,-2.060000040E-2,-3.691499949E0,-5.976599693E0
1.197939491E0,-8.500000089E-2,-2.615000010E0,-2.297699928E0
1.207939491E0,-1.719999909E-1,-2.355099916E0,4.675099850E0
1.217939491E0,4.585999846E-1,-7.568799973E0,8.076099396E0
1.227939491E0,7.999999523E-1,-4.591599941E0,3.035399914E0
1.237939491E0,1.378799915E0,-1.928799987E0,-4.179399967E0
1.247939491E0,1.768700004E0,-1.802899957E0,-5.754899979E0
1.257939491E0,1.847399950E0,-1.836799979E0,4.059999809E-2
1.267939491E0,1.026600003E0,-3.482399940E0,4.897399902E0
1.277939491E0,-8.456999660E-1,-5.801499844E0,1.986599922E0
1.287939491E0,-6.499999762E-1,-2.202600002E0,-4.493199825E0
1.297939491E0,-5.098999739E-1,-1.172599912E0,-3.698699951E0
1.307939491E0,1.098500013E0,-1.268999934E0,2.518000007E-1
1.317939491E0,1.596499920E0,-1.264699936E0,3.050299883E0
1.327939491E0,7.299999595E-1,-3.706499815E0,1.803900003E0
1.337939491E0,6.459999830E-2,-3.315999985E0,-3.797899961E0
1.347939491E0,9.872999787E-1,-8.027999997E-1,-6.759899616E0
1.357939491E0,4.333999753E-1,-1.523100019E0,-4.731999934E-1
1.367939491E0,5.137000084E-1,-2.619699955E0,3.591599941E0
1.377939491E0,2.369999886E0,-2.296000004E0,4.767899990E0
1.387939491E0,7.050999999E-1,-5.612999916E0,2.669699907E0
1.397939491E0,-1.414699912E0,-5.552899837E0,-4.002399921E0
1.407939491E0,6.784999967E-1,-2.293400049E0,-6.574399948E0
1.417939491E0,2.151000023E0,-2.293799877E0,-1.995999932E0
1.427939491E0,-1.499999966E-2,-4.721299648E0,1.621999890E-1
1.437939491E0,1.545999944E-1,-6.256199837E0,8.412999511E-1
1.447939491E0,-1.437000036E-1,-7.453099728E0,-8.693000078E-1
1.457939491E0,6.638999581E-1,-1.020189953E1,8.579999954E-2
1.467939491E0,1.811499953E0,-8.695300102E0,2.175999880E-1
1.477939491E0,3.316999912E0,-7.361099720E0,-2.314199924E0
1.487939491E0,1.894400001E0,-6.763799667E0,-2.237200022E0
1.497939491E0,-4.246999919E-1,-7.851099968E0,-2.327999920E-1
1.507939491E0,-6.937999725E-1,-7.743700027E0,-9.420999885E-1
1.517939491E0,2.691999972E-1,-6.715099812E0,-1.901799917E0
1.527939491E0,2.585999966E-1,-6.506399632E0,-1.038599968E0
1.537939491E0,-1.278999895E-1,-5.575900078E0,-4.607999921E-1
1.547939491E0,-8.240000159E-2,-4.965399742E0,3.825999796E-1
1.557939491E0,2.369999886E-2,-5.308399677E0,-2.142999917E-1
1.567939491E0,7.622999549E-1,-5.184799671E0,-1.141700029E0
1.577939491E0,8.708999753E-1,-5.066699982E0,-5.087999701E-1
1.587939491E0,8.127999902E-1,-5.027699947E0,5.164999962E-1
1.597939491E0,-2.602999806E-1,-4.931699753E0,6.118999720E-1
1.607939491E0,-6.348999739E-1,-4.724899769E0,1.070699930E0
1.617939491E0,-4.099999964E-1,-4.773699760E0,7.838999629E-1
1.627939491E0,-2.866999805E-1,-4.349199772E0,-1.079699993E0
1.637939491E0,3.822999895E-1,-3.866999865E0,-1.667400002E0
1.647939491E0,9.629999995E-1,-3.450399876E0,-5.503999591E-1
1.657939491E0,4.122999907E-1,-1.706699967E0,-5.230000019E-1
1.667939491E0,-1.788999885E-1,-9.454999566E-1,-9.957999587E-1
1.677939491E0,-3.540000021E-1,-5.465999842E-1,-3.231999874E-1
1.687939491E0,-1.131999940E-1,-3.398000002E-1,5.141999722E-1
1.697939491E0,2.639999986E-2,-1.916999966E-1,6.455000043E-1
1.707939491E0,1.676999927E-1,-1.386999935E-1,2.965999842E-1
1.717939491E0,-5.139999837E-2,-1.389999967E-2,-1.204999983E-1
1.727939491E0,-1.127000004E-1,-1.689999923E-2,-1.748999953E-1
1.737939491E0,1.004999951E-1,-7.499999553E-2,3.188000023E-1
1.747939491E0,8.769999444E-2,-1.870999932E-1,6.058999896E-1
1.757939491E0,2.199999988E-2,-3.409999907E-1,4.025000036E-1
1.767939491E0,3.999999899E-4,-3.788999915E-1,-3.008999825E-1
1.777939491E0,1.045999974E-1,-4.095999897E-1,-4.360999763E-1
1.787939491E0,3.379999846E-2,-4.150999784E-1,-2.775000036E-1
1.797939491E0,-3.899999894E-3,-4.122999907E-1,-3.935999870E-1
1.807939491E0,9.160000086E-2,-3.307999969E-1,-4.509999752E-1
1.817939491E0,-8.499999531E-3,-2.698000073E-1,-4.759999737E-2
1.827939491E0,-2.719999850E-2,-2.586999834E-1,2.576999962E-1
1.837939491E0,4.289999977E-2,-2.054999918E-1,-7.389999926E-2
1.847939491E0,2.399999881E-3,-1.973999888E-1,-2.973999977E-1
1.857939491E0,8.029999584E-2,-1.596999913E-1,2.635000050E-1
1.867939491E0,-4.100000020E-3,-2.586999834E-1,4.717999995E-1
1.877939491E0,-8.590000123E-2,-2.171999961E-1,-2.116999924E-1
1.887939491E0,-5.350000039E-2,-2.348999977E-1,-5.426999927E-1
1.897939491E0,-9.189999849E-2,-2.845999897E-1,-3.445000052E-1
1.907939491E0,3.999999899E-4,-2.169999927E-1,-1.362999976E-1
1.917939491E0,-1.331000030E-1,-2.595999837E-1,3.219999745E-2
1.927939491E0,-2.419999987E-2,-2.167999893E-1,4.339999706E-2
1.937939491E0,1.017999947E-1,-1.554999948E-1,2.489999868E-2
1.947939491E0,7.079999894E-2,-3.579999879E-2,-1.310000010E-2
1.957939491E0,6.099999696E-2,-1.359999925E-2,-1.589999944E-1
1.967939491E0,-1.064999998E-1,2.969999984E-2,-1.479000002E-1
1.977939491E0,-7.000000030E-2,1.489999983E-2,1.375999898E-1
1.987939491E0,7.229999453E-2,8.599999361E-3,3.346999884E-1
1.997939491E0,2.879999951E-2,5.939999968E-2,1.393999904E-1
2.007939491E0,2.589999884E-2,-1.154999956E-1,-1.832000017E-1
