"Time (s)","Linear Acceleration x (m/s^2)","Linear Acceleration y (m/s^2)","Linear Acceleration z (m/s^2)"
0.000000000E0,5.299999844E-3,1.359999925E-2,-8.889999986E-2
1.000000000E-2,-1.500000013E-3,0.000000000E0,-9.919999540E-2
2.000000000E-2,-1.500000013E-3,0.000000000E0,-1.188999936E-1
3.000000000E-2,-1.059999969E-2,0.000000000E0,-1.188999936E-1
4.000000000E-2,-8.999999845E-4,0.000000000E0,-8.949999511E-2
5.000000000E-2,-9.999999311E-4,0.000000000E0,-1.188999936E-1
6.000000000E-2,-9.099999443E-3,0.000000000E0,-8.949999511E-2
7.000000000E-2,7.999999449E-3,7.699999958E-3,-7.959999889E-2
8.000000000E-2,6.000000052E-3,-1.500000013E-3,-7.959999889E-2
9.000000000E-2,-3.399999812E-3,1.509999949E-2,-1.187999994E-1
1.000000000E-1,4.900000058E-3,-3.599999938E-3,-1.187999994E-1
1.100000000E-1,-3.999999724E-3,-2.899999963E-3,-8.940000087E-2
1.200000000E-1,1.249999925E-2,-2.300000051E-3,-1.187999994E-1
1.300000000E-1,-1.349999942E-2,-1.799999969E-3,-8.940000087E-2
1.400000000E-1,-1.109999977E-2,-9.300000034E-3,-9.929999709E-2
1.500000000E-1,-4.999999655E-4,2.999999851E-4,-9.929999709E-2
1.600000000E-1,6.499999668E-3,2.999999851E-4,-6.979999691E-2
1.700000000E-1,-2.699999837E-3,2.999999851E-4,-1.089999974E-1
1.800000000E-1,-2.499999944E-3,9.999999747E-5,-8.940000087E-2
1.900000000E-1,-2.600000007E-3,3.999999899E-4,-9.919999540E-2
2.000000000E-1,5.299999844E-3,3.999999899E-4,-9.919999540E-2
2.100000000E-1,-1.129999943E-2,2.999999851E-4,-7.959999889E-2
2.200000000E-1,6.199999712E-3,2.999999851E-4,-9.919999540E-2
2.300000000E-1,-3.000000026E-3,1.999999949E-4,-6.979999691E-2
2.400000000E-1,4.900000058E-3,1.999999949E-4,-7.959999889E-2
2.500000000E-1,-4.100000020E-3,2.999999851E-4,-7.959999889E-2
2.600000000E-1,-3.419999778E-2,-6.879999489E-2,-7.979999483E-2
2.700000000E-1,-4.479999840E-2,-3.323999941E-1,-8.959999681E-2
2.800000000E-1,-8.379999548E-2,-3.278000057E-1,-7.000000030E-2
2.900000000E-1,-6.340000033E-2,-2.238999903E-1,-7.979999483E-2
3.000000000E-1,-5.249999836E-2,-1.297999918E-1,-1.092999950E-1
3.100000000E-1,-3.179999813E-2,-3.659999743E-2,-7.989999652E-2
3.200000000E-1,7.999999449E-3,2.579999901E-2,-9.950000048E-2
3.300000000E-1,-1.199999941E-3,3.819999844E-2,-7.989999652E-2
3.400000000E-1,2.829999849E-2,1.080999970E-1,-9.950000048E-2
3.500000000E-1,2.829999849E-2,9.849999845E-2,-9.950000048E-2
3.600000000E-1,1.819999889E-2,1.173999980E-1,-7.989999652E-2
3.700000000E-1,4.699999839E-2,2.133999914E-1,-8.969999850E-2
3.800000000E-1,4.619999975E-2,2.201000005E-1,-7.989999652E-2
3.900000000E-1,5.499999970E-2,2.064999938E-1,-8.959999681E-2
4.000000000E-1,4.409999773E-2,1.922999918E-1,-8.959999681E-2
4.100000000E-1,5.269999802E-2,1.876999885E-1,-7.979999483E-2
4.200000000E-1,6.119999662E-2,1.344999969E-1,-9.929999709E-2
4.300000000E-1,3.049999848E-2,1.303000003E-1,-7.970000058E-2
4.400000000E-1,2.939999849E-2,8.729999512E-2,-8.949999511E-2
4.500000000E-1,8.799999952E-3,1.569999941E-2,-9.929999709E-2
4.600000000E-1,-9.999999311E-4,1.209999993E-2,-7.959999889E-2
4.700000000E-1,2.249999903E-2,4.949999973E-2,-9.919999540E-2
4.800000000E-1,-4.999999888E-3,3.999999899E-4,-5.020000041E-2
4.900000000E-1,-4.699999932E-3,3.999999899E-4,-1.384000033E-1
5.000000000E-1,-1.960000023E-2,1.999999949E-4,-8.949999511E-2
5.100000000E-1,-2.999999851E-4,-7.199999876E-3,-6.979999691E-2
5.200000000E-1,-5.999999703E-4,-5.899999756E-3,-9.929999709E-2
5.300000000E-1,-1.500000013E-3,3.700000001E-3,-5.999999866E-2
5.400000000E-1,2.309999987E-2,3.199999919E-3,-1.286000013E-1
5.500000000E-1,2.300000051E-3,2.499999944E-3,-6.969999522E-2
5.600000000E-1,-6.199999712E-3,1.999999862E-3,-7.959999889E-2
5.700000000E-1,2.600000007E-3,1.699999906E-3,-1.286000013E-1
5.800000000E-1,1.699999906E-3,1.300000004E-3,-6.969999522E-2
5.900000000E-1,-7.100000046E-3,1.099999994E-3,-1.187999994E-1
6.000000000E-1,-1.349999942E-2,7.999999798E-4,-7.959999889E-2
6.100000000E-1,-3.199999919E-3,5.999999703E-4,-8.940000087E-2
6.200000000E-1,-2.899999963E-3,4.999999655E-4,-7.959999889E-2
6.300000000E-1,-2.399999881E-3,2.999999851E-4,-5.999999866E-2
6.400000000E-1,-1.229999959E-2,2.999999851E-4,-1.089999974E-1
6.500000000E-1,-1.239999942E-2,2.999999851E-4,-6.979999691E-2
6.600000000E-1,-2.600000007E-3,3.999999899E-4,-6.979999691E-2
6.700015630E-1,-2.699999837E-3,3.999999899E-4,-9.919999540E-2
6.800000000E-1,-2.229999937E-2,-1.909999922E-2,-8.940000087E-2
6.900000000E-1,-2.229999937E-2,-9.200000204E-3,-6.979999691E-2
7.000000000E-1,-1.260000002E-2,4.999999655E-4,-7.959999889E-2
7.100000000E-1,-1.269999985E-2,5.999999703E-4,-8.940000087E-2
7.200000000E-1,-2.899999963E-3,5.999999703E-4,-7.959999889E-2
7.300000000E-1,-3.099999856E-3,5.999999703E-4,-6.979999691E-2
7.400000000E-1,6.599999964E-3,6.999999750E-4,-9.919999540E-2
7.500000000E-1,6.499999668E-3,1.049999986E-2,-7.959999889E-2
7.600000000E-1,6.399999838E-3,6.999999750E-4,-7.959999889E-2
7.700000000E-1,-3.399999812E-3,7.999999798E-4,-8.940000087E-2
7.800000000E-1,6.300000008E-3,8.999999845E-4,-7.959999889E-2
7.900000000E-1,-1.329999976E-2,7.999999798E-4,-8.940000087E-2
8.000000000E-1,6.099999882E-3,7.999999798E-4,-9.919999540E-2
8.100000000E-1,6.099999882E-3,7.999999798E-4,-9.919999540E-2
8.200000000E-1,-3.599999938E-3,7.999999798E-4,-9.919999540E-2
8.300000000E-1,-3.700000001E-3,6.999999750E-4,-7.959999889E-2
8.400000000E-1,-1.349999942E-2,7.999999798E-4,-8.940000087E-2
8.500000000E-1,-3.799999831E-3,7.999999798E-4,-9.919999540E-2
8.600000000E-1,-3.899999894E-3,8.999999845E-4,-7.959999889E-2
8.700000000E-1,-3.999999724E-3,8.999999845E-4,-7.959999889E-2
8.800000000E-1,-4.100000020E-3,8.999999845E-4,-8.940000087E-2
8.900000000E-1,-4.100000020E-3,1.099999994E-3,-8.940000087E-2
9.000000000E-1,-1.389999967E-2,1.099999994E-3,-8.940000087E-2
9.100000000E-1,5.499999970E-3,1.199999941E-3,-8.940000087E-2
9.200000000E-1,-1.399999950E-2,1.199999941E-3,-7.959999889E-2
9.300000000E-1,-1.409999933E-2,1.099999994E-3,-8.940000087E-2
9.400000000E-1,-4.399999976E-3,1.099999994E-3,-8.940000087E-2
9.500031250E-1,-4.499999806E-3,1.099999994E-3,-8.940000087E-2
9.600000000E-1,-4.600000102E-3,1.199999941E-3,-6.979999691E-2
9.700000000E-1,5.099999718E-3,1.199999941E-3,-8.940000087E-2
9.800000000E-1,-1.449999958E-2,-1.809999906E-2,-8.940000087E-2
9.900000000E-1,-1.459999941E-2,1.599999960E-3,-8.940000087E-2
1.000000000E0,-4.900000058E-3,1.599999960E-3,-7.959999889E-2
1.010000000E0,-4.999999888E-3,1.599999960E-3,-7.959999889E-2
1.020000000E0,-1.480000000E-2,1.500000013E-3,-9.919999540E-2
1.030000000E0,4.600000102E-3,1.599999960E-3,-6.979999691E-2
1.040000000E0,4.499999806E-3,1.139999926E-2,-7.959999889E-2
1.050000000E0,4.399999976E-3,1.799999969E-3,-7.959999889E-2
1.060000000E0,-5.399999674E-3,1.899999916E-3,-7.959999889E-2
1.070003125E0,-5.299999844E-3,1.999999862E-3,-5.020000041E-2
1.080000000E0,4.299999680E-3,1.999999862E-3,-8.940000087E-2
1.090003125E0,1.399999950E-2,1.899999916E-3,-9.919999540E-2
1.100000000E0,-5.599999800E-3,-7.799999788E-3,-9.919999540E-2
1.110000000E0,1.370000001E-2,1.899999916E-3,-5.999999866E-2
1.120000000E0,3.899999894E-3,1.999999862E-3,-9.919999540E-2
1.130000000E0,3.700000001E-3,1.999999862E-3,-8.940000087E-2
1.140000000E0,3.700000001E-3,2.099999925E-3,-6.979999691E-2
1.150000000E0,-1.589999907E-2,2.099999925E-3,-7.959999889E-2
1.160000000E0,3.499999875E-3,1.999999862E-3,-8.940000087E-2
1.170000000E0,-1.609999873E-2,2.099999925E-3,-8.940000087E-2
1.180000000E0,-1.609999873E-2,2.099999925E-3,-1.187999994E-1
1.190000000E0,-6.399999838E-3,2.099999925E-3,-9.919999540E-2
1.200000000E0,-6.399999838E-3,-7.599999662E-3,-7.959999889E-2
1.210000000E0,-2.016000003E-1,-6.417999864E-1,-6.979999691E-2
1.220000000E0,-1.123999953E-1,-1.638499975E0,-7.959999889E-2
1.230000000E0,-7.279999554E-2,-2.794299841E0,-7.959999889E-2
1.240000000E0,8.410000056E-2,-4.723700047E0,-8.949999511E-2
1.250000000E0,2.410999984E-1,-7.339200020E0,-8.959999681E-2
1.260000000E0,1.625999957E-1,-9.256599426E0,-7.979999483E-2
1.270000000E0,-7.270000130E-2,-9.582499504E0,-7.019999623E-2
1.280000000E0,-5.235999823E-1,-7.286499977E0,-6.059999764E-2
1.290000000E0,-8.368999958E-1,-4.204599857E0,-1.393000036E-1
1.300000000E0,-9.844999909E-1,-1.514499903E0,-3.179999813E-2
1.310000000E0,-1.093500018E0,-2.763999999E-1,-6.149999797E-2
1.320003125E0,-1.006899953E0,-3.999999911E-2,-3.249999881E-2
1.330000000E0,-9.891999960E-1,-2.458999902E-1,-1.210999936E-1
1.340000000E0,-9.909999967E-1,-1.051399946E0,-1.410999894E-1
1.350000000E0,-8.666999936E-1,-1.955599904E0,-2.298000008E-1
1.360000000E0,-6.354999542E-1,-2.948400021E0,-1.516999900E-1
1.370000000E0,-5.647000074E-1,-4.176899910E0,1.911000013E-1
1.380000000E0,-6.064000130E-1,-5.018799782E0,-8.399999887E-2
1.390000000E0,-7.197999954E-1,-4.690299988E0,1.797999889E-1
1.400000000E0,-6.057999730E-1,-4.090300083E0,-7.580000162E-2
1.410000000E0,-5.199999809E-1,-2.843799829E0,-7.649999857E-2
1.420000000E0,-1.378999949E-1,-1.959999919E0,2.755999863E-1
1.430000000E0,1.245100021E0,2.167999893E-1,-1.565999985E-1
1.440000000E0,1.263499975E0,8.912999630E-1,-2.062999904E-1
1.450000000E0,9.292999506E-1,8.971999884E-1,-4.030000046E-2
1.460000000E0,7.706999779E-1,5.974999666E-1,-4.099999741E-2
1.470000000E0,1.114999950E-1,-3.204999864E-1,-1.297999918E-1
1.480000000E0,9.049999714E-2,-1.013999939E0,1.659999974E-2
1.490000000E0,1.979999989E-2,-1.687600017E0,-1.310999990E-1
1.500000000E0,8.449999988E-2,1.483999938E-1,-4.339999706E-2
1.510000000E0,-4.095999897E-1,-1.105099916E0,1.324999928E-1
1.520000000E0,-5.110999942E-1,-3.290099859E0,-7.389999926E-2
1.530000000E0,-6.208999753E-1,-2.621099949E0,1.900999993E-1
1.540000000E0,-1.210299969E0,9.230599403E0,-5.945999622E-1
1.550000000E0,-3.168999851E-1,7.193500042E0,3.269999847E-2
1.560000000E0,-9.229999781E-1,7.504600048E0,3.270999789E-1
1.570000000E0,-1.204699993E0,7.489199638E0,-3.539999947E-2
1.580000000E0,-1.061499953E0,7.774499893E0,4.454999864E-1
1.590000000E0,-6.137999892E-1,7.417999744E0,-6.423000097E-1
1.600000000E0,-4.291999936E-1,6.541599751E0,6.419999897E-2
1.610000000E0,3.154999912E-1,5.651799679E0,5.651000142E-1
1.620000000E0,1.205500007E0,6.075200081E0,-1.287500024E0
1.630000000E0,9.775999784E-1,4.595499992E0,7.432000041E-1
1.640000000E0,1.364599943E0,3.869599819E0,-2.266999930E-1
1.650000000E0,1.259400010E0,4.252200127E0,-6.182000041E-1
1.660000000E0,8.887999654E-1,3.948499918E0,7.945999503E-1
1.670000000E0,5.636000037E-1,4.791999817E0,-1.146199942E0
1.680000000E0,5.299999937E-2,3.851499796E0,6.686999798E-1
1.690000000E0,-2.231999934E-1,4.087299824E0,-1.934999973E-1
1.700000000E0,-2.549999952E-1,3.940199852E0,-4.477999806E-1
1.710000000E0,-1.767999977E-1,1.705999970E0,4.450999796E-1
1.720000000E0,4.649999738E-2,2.856999934E-1,-7.407999635E-1
1.730000000E0,7.599999662E-3,2.746999860E-1,7.303999662E-1
1.740000000E0,-2.300000051E-3,2.309999913E-1,-2.890000045E-1
1.750000000E0,-2.389999852E-2,1.763999909E-1,-3.669999838E-1
1.760000000E0,-5.379999802E-2,2.303999960E-1,4.078999758E-1
1.770000000E0,3.240000084E-2,1.664000005E-1,-4.054999948E-1
1.780000000E0,-5.899999756E-3,2.009999901E-1,2.222999930E-1
1.790000000E0,1.269999985E-2,1.802999973E-1,-4.834999740E-1
1.800000000E0,2.080000006E-2,1.779999882E-1,-8.109999448E-2
1.810000000E0,2.029999904E-2,1.670999974E-1,3.798999786E-1
1.820000000E0,1.889999956E-2,1.473999918E-1,-6.103000045E-1
1.830000000E0,-2.999999851E-4,1.467999965E-1,2.036999911E-1
1.840000000E0,5.429999903E-2,1.367999911E-1,-1.784999967E-1
1.850000000E0,2.259999886E-2,1.261999905E-1,-5.079999939E-2
1.860000000E0,-6.699999794E-3,1.097999960E-1,3.739999980E-2
1.870000000E0,1.150000002E-2,1.036999971E-1,-4.624999762E-1
1.880000000E0,-2.559999935E-2,9.730000049E-2,2.630999982E-1
1.890000000E0,3.199999919E-3,9.089999646E-2,-2.073999941E-1
1.900000000E0,-2.439999953E-2,7.479999959E-2,-4.069999978E-2
1.910000000E0,-1.339999959E-2,6.899999827E-2,8.299999870E-3
1.920000000E0,-3.799999831E-3,8.299999684E-2,-2.563000023E-1
1.930000000E0,-3.499999875E-3,6.819999963E-2,1.064999998E-1
1.940000000E0,1.469999924E-2,6.359999627E-2,-2.071999907E-1
1.950000000E0,-4.699999932E-3,6.819999963E-2,-8.949999511E-2
1.960000000E0,-4.399999976E-3,6.309999526E-2,-5.999999866E-2
1.970000000E0,1.489999983E-2,6.319999695E-2,-7.959999889E-2
1.980000000E0,4.999999888E-3,6.319999695E-2,2.809999883E-2
1.990000000E0,4.999999888E-3,5.339999869E-2,-1.776999980E-1
2.000000000E0,-4.799999762E-3,6.329999864E-2,-9.929999709E-2
