"Time (s)","Gyroscope x (rad/s)","Gyroscope y (rad/s)","Gyroscope z (rad/s)"
1.478510000E-1,-3.351032268E-3,-1.195550524E-2,2.286381321E-3
1.508510000E-1,1.466076588E-3,1.919862116E-4,-1.047197584E-4
1.548510000E-1,2.443460980E-4,1.919862116E-4,-1.326450263E-3
1.588510000E-1,2.443460980E-4,1.413716702E-3,1.099557383E-3
1.628556880E-1,1.466076588E-3,1.413716702E-3,-1.326450263E-3
1.668510000E-1,1.466076588E-3,-1.012290944E-3,1.099557383E-3
1.708510000E-1,-9.599310579E-4,1.919862116E-4,-1.047197584E-4
1.748510000E-1,1.466076588E-3,2.652900526E-3,1.085594762E-2
1.788510000E-1,1.466076588E-3,2.652900526E-3,7.190756500E-3
1.828510000E-1,-9.599310579E-4,2.094395168E-4,4.747295752E-3
1.868510000E-1,2.443460980E-4,2.652900526E-3,1.818633080E-2
1.908510000E-1,7.504915702E-4,1.256637042E-3,2.478367416E-3
1.948510000E-1,4.712388909E-4,4.363323096E-4,-4.363323096E-4
1.988510000E-1,6.806784077E-4,6.806784077E-4,-4.363323096E-4
2.028510000E-1,5.934119690E-4,2.967059845E-4,-5.759586347E-4
2.068510000E-1,4.188790335E-4,1.919862116E-4,-7.679448463E-4
2.108510000E-1,8.726646047E-5,1.518436475E-3,-3.665191471E-4
2.148510000E-1,0.000000000E0,1.413716702E-3,-7.155850180E-4
2.188510000E-1,1.221730490E-4,1.692969352E-3,-8.028514567E-4
2.228510000E-1,1.047197497E-3,6.981316837E-4,-8.377580671E-4
2.268510000E-1,5.410520826E-4,1.343903481E-3,-8.377580671E-4
2.308510000E-1,1.012290944E-3,1.378810150E-3,5.235987919E-5
2.348510000E-1,1.134464052E-3,1.221730490E-3,1.029744279E-3
2.388510000E-1,1.623156248E-3,4.363323096E-4,-1.919862116E-4
2.428510000E-1,6.806784077E-4,2.268928074E-4,-1.134464052E-3
2.468510000E-1,7.504915702E-4,-1.047197584E-4,-1.361356815E-3
2.508510000E-1,1.064650831E-3,-5.235987919E-5,-1.431170036E-3
2.548510000E-1,8.377580671E-4,9.948377265E-4,-1.134464052E-3
2.588510000E-1,3.490658419E-4,8.377580671E-4,-5.585053470E-3
2.628697500E-1,9.599310579E-4,6.283185212E-4,-1.380555425E-2
2.668510000E-1,6.632251316E-4,4.363323096E-4,-2.138028294E-2
2.708510000E-1,4.363323096E-4,5.235987483E-4,-3.312635049E-2
2.748510000E-1,-5.235987919E-5,4.014257283E-4,-4.434881732E-2
2.788510000E-1,1.605702913E-3,2.268928074E-4,-5.974261835E-2
2.828510000E-1,2.268928074E-4,4.712388909E-4,-7.459536940E-2
2.868510000E-1,3.490658492E-5,3.839724232E-4,-8.751080930E-2
2.908510000E-1,1.221730490E-4,5.235987483E-4,-9.824458510E-2
2.948510000E-1,7.504915702E-4,1.047197584E-4,-1.111425683E-1
2.988510000E-1,1.745329246E-5,2.967059845E-4,-1.209687665E-1
3.028510000E-1,2.792526793E-4,-5.410520826E-4,-1.282118857E-1
3.068510000E-1,3.316125658E-4,-4.712388909E-4,-1.347394139E-1
3.108510000E-1,6.632251316E-4,5.934119690E-4,-1.414414793E-1
3.148510000E-1,1.797689125E-3,5.759586347E-4,-1.431693584E-1
3.188510000E-1,1.797689125E-3,2.617993741E-4,-1.458746195E-1
3.228510000E-1,2.234021435E-3,-2.443460980E-4,-1.443387270E-1
3.268510000E-1,2.059488557E-3,-3.839724232E-4,-1.469392627E-1
3.308510000E-1,1.710422686E-3,1.570796303E-4,-1.455080956E-1
3.348510000E-1,1.762782573E-3,0.000000000E0,-1.427330226E-1
3.388510000E-1,1.937315450E-3,-4.712388909E-4,-1.379333735E-1
3.428510000E-1,1.675516134E-3,-1.047197497E-3,-1.362404078E-1
3.468510000E-1,1.151917269E-3,-2.967059845E-4,-1.296081543E-1
3.508510000E-1,8.726646192E-4,3.490658492E-5,-1.301492006E-1
3.548510000E-1,1.099557383E-3,1.221730490E-4,-1.262222081E-1
3.588510000E-1,1.902408898E-3,-5.934119690E-4,-1.236914843E-1
3.628510000E-1,7.679448463E-4,2.617993741E-4,-1.194328815E-1
3.668510000E-1,1.221730490E-3,-2.443460980E-4,-1.142492518E-1
3.708510000E-1,1.797689125E-3,5.061454722E-4,-1.073377505E-1
3.748510000E-1,1.029744279E-3,2.443460980E-4,-1.013163626E-1
3.788510000E-1,9.948377265E-4,1.745329209E-4,-9.597565234E-2
3.828510000E-1,5.235987483E-4,1.064650831E-3,-8.857546002E-2
3.868510000E-1,4.014257283E-4,8.552113432E-4,-8.286823332E-2
3.908510000E-1,-6.632251316E-4,3.490658492E-5,-7.611380517E-2
3.948510000E-1,-1.919862116E-4,-1.745329246E-5,-6.998769939E-2
3.988510000E-1,2.094395168E-4,1.047197584E-4,-6.342526525E-2
4.028510000E-1,3.316125658E-4,-1.396263397E-4,-5.839871615E-2
4.068510000E-1,8.028514567E-4,3.665191471E-4,-5.211552978E-2
4.108510000E-1,1.378810150E-3,2.094395168E-4,-4.597197101E-2
4.148510000E-1,6.283185212E-4,9.250245057E-4,-3.939208016E-2
4.188510000E-1,-1.570796303E-4,5.061454722E-4,-3.422590718E-2
4.228510000E-1,-6.632251316E-4,2.443460980E-4,-2.865830623E-2
4.268510000E-1,-3.490658492E-5,1.082104165E-3,-2.268928103E-2
4.308510000E-1,1.047197584E-4,4.014257283E-4,-1.663298719E-2
4.348510000E-1,5.934119690E-4,1.274090377E-3,-1.082104165E-2
4.388525630E-1,5.759586347E-4,7.504915702E-4,-6.457718089E-3
4.428510000E-1,4.188790335E-4,1.745329246E-5,-3.804817796E-3
4.468510000E-1,8.377580671E-4,-1.745329246E-5,-1.919862116E-3
4.508510000E-1,4.886921961E-4,4.014257283E-4,-8.203047328E-4
4.548510000E-1,4.014257283E-4,3.665191471E-4,-3.839724232E-4
4.588510000E-1,3.665191471E-4,5.061454722E-4,-1.326450263E-3
4.628510000E-1,3.665191471E-4,1.151917269E-3,-1.117010717E-3
4.668510000E-1,3.665191471E-4,1.012290944E-3,-9.075712296E-4
4.708510000E-1,1.727875904E-3,1.431170036E-3,-1.151917269E-3
4.748510000E-1,1.047197584E-4,1.239183708E-3,-2.286381321E-3
4.788510000E-1,9.075712296E-4,8.901178953E-4,-1.815142459E-3
4.828510000E-1,1.099557383E-3,1.850049011E-3,-7.853981806E-4
4.868510000E-1,-7.853981806E-4,1.797689125E-3,-6.806784077E-4
4.908510000E-1,-9.773843922E-4,2.792526793E-4,-8.028514567E-4
4.948510000E-1,6.108652451E-4,3.490658492E-5,-8.203047328E-4
4.988510000E-1,1.186823938E-3,8.726646192E-4,-1.291543595E-3
5.028510000E-1,1.221730490E-4,1.239183708E-3,-2.094395168E-4
5.068510000E-1,9.075712296E-4,1.797689125E-3,5.235987919E-5
5.108510000E-1,3.490658419E-4,7.330382941E-4,1.186823938E-3
5.148510000E-1,3.665191471E-4,7.504915702E-4,1.047197497E-3
5.188510000E-1,3.665191471E-4,1.361356815E-3,6.248278543E-3
5.228510000E-1,1.117010717E-3,7.679448463E-4,3.281218931E-3
5.268510000E-1,1.012290944E-3,6.108652451E-4,-6.981316983E-5
5.308510000E-1,6.806784077E-4,1.483529806E-3,8.377580671E-4
5.348510000E-1,0.000000000E0,1.256637042E-3,1.919862116E-4
5.388510000E-1,1.762782573E-3,4.363323096E-4,-5.585053586E-4
5.428510000E-1,1.029744279E-3,1.134464052E-3,1.169370604E-3
5.468510000E-1,5.410520826E-4,1.012290944E-3,-1.745329246E-5
5.508510000E-1,4.014257283E-4,1.134464052E-3,-1.745329209E-4
5.548510000E-1,1.274090377E-3,4.188790335E-4,-6.632251316E-4
5.588510000E-1,-2.792526793E-4,2.268928074E-4,8.726646047E-5
5.628572500E-1,1.919862116E-4,6.283185212E-4,-5.934119690E-4
5.668510000E-1,-1.029744279E-3,5.759586347E-4,-7.679448463E-4
5.708510000E-1,0.000000000E0,7.155850180E-4,-5.235987483E-4
5.748510000E-1,-1.745329246E-5,1.658062800E-3,2.792526793E-4
5.788510000E-1,1.047197584E-4,1.745329238E-3,-5.410520826E-4
5.828510000E-1,2.967059845E-4,1.169370604E-3,-7.679448463E-4
5.868510000E-1,3.490658419E-4,5.759586347E-4,-8.203047328E-4
5.908510000E-1,-5.235987483E-4,-1.745329246E-5,-3.839724232E-4
5.948510000E-1,-3.141592606E-4,4.014257283E-4,-4.188790335E-4
5.988510000E-1,-2.443460980E-4,2.268928074E-4,-1.221730490E-4
6.028510000E-1,-3.839724232E-4,1.745329209E-4,-6.457717973E-4
6.068510000E-1,-1.221730490E-4,6.108652451E-4,-7.853981806E-4
6.108510000E-1,-5.235987919E-5,1.483529806E-3,-8.203047328E-4
6.148510000E-1,1.047197584E-4,1.396263367E-3,-3.839724232E-4
6.188510000E-1,0.000000000E0,9.250245057E-4,1.745329246E-5
6.228510000E-1,4.188790335E-4,1.117010717E-3,-4.537856148E-4
6.268510000E-1,-2.094395168E-4,7.155850180E-4,0.000000000E0
6.308510000E-1,-3.839724232E-4,7.504915702E-4,-1.570796303E-4
6.348510000E-1,1.745329209E-4,3.141592606E-4,-9.599310579E-4
6.388510000E-1,3.141592606E-4,6.457717973E-4,1.745329246E-5
6.428510000E-1,3.490658419E-4,1.186823938E-3,-6.108652451E-4
6.468510000E-1,1.256637042E-3,7.155850180E-4,-7.853981806E-4
6.508510000E-1,5.934119690E-4,4.537856148E-4,-8.203047328E-4
6.548510000E-1,5.759586347E-4,9.773843922E-4,-8.377580671E-4
6.588510000E-1,-1.745329246E-5,9.773843922E-4,-3.839724232E-4
6.628572500E-1,1.047197584E-4,8.203047328E-4,-7.155850180E-4
6.668510000E-1,5.934119690E-4,3.316125658E-4,-8.028514567E-4
6.708525630E-1,5.759586347E-4,2.094395168E-4,-8.377580671E-4
6.748510000E-1,1.169370604E-3,4.712388909E-4,-8.377580671E-4
6.788510000E-1,4.188790335E-4,3.839724232E-4,-8.377580671E-4
6.828510000E-1,6.806784077E-4,5.235987483E-4,-8.377580671E-4
6.868510000E-1,4.363323096E-4,8.552113432E-4,-8.377580671E-4
6.908510000E-1,3.839724232E-4,3.316125658E-4,-8.377580671E-4
6.948510000E-1,-3.665191471E-4,1.099557383E-3,-8.377580671E-4
6.988510000E-1,3.141592606E-4,1.151917269E-3,-8.377580671E-4
7.028510000E-1,5.061454722E-4,1.326450263E-3,-8.377580671E-4
7.068510000E-1,-3.490658492E-5,1.361356815E-3,-3.839724232E-4
7.108510000E-1,2.617993741E-4,6.283185212E-4,-7.155850180E-4
7.148510000E-1,3.316125658E-4,2.792526793E-4,-8.028514567E-4
7.188510000E-1,3.490658419E-4,7.853981806E-4,-8.726646047E-5
7.228510000E-1,-8.203047328E-4,1.082104165E-3,-4.886921961E-4
7.268510000E-1,1.919862116E-4,4.014257283E-4,-7.504915702E-4
7.308510000E-1,7.679448463E-4,6.632251316E-4,-5.235987483E-4
7.348510000E-1,6.283185212E-4,-1.396263397E-4,-1.570796303E-4
7.388510000E-1,0.000000000E0,9.773843922E-4,-2.094395168E-4
7.428510000E-1,7.155850180E-4,3.665191471E-4,-6.806784077E-4
7.468510000E-1,4.537856148E-4,5.061454722E-4,-8.028514567E-4
7.508510000E-1,8.726646047E-5,1.308996929E-3,5.235987919E-5
7.548510000E-1,1.396263397E-4,4.537856148E-4,-2.967059845E-4
7.588510000E-1,1.064650831E-3,2.268928074E-4,-5.410520826E-4
7.628635000E-1,6.981316837E-4,7.679448463E-4,-7.679448463E-4
7.668510000E-1,7.504915702E-4,6.283185212E-4,1.570796361E-3
7.708510000E-1,6.108652451E-4,7.330382941E-4,2.443460980E-4
7.748510000E-1,5.759586347E-4,1.361356815E-3,1.745329209E-4
7.788510000E-1,2.617993741E-4,1.675516134E-3,-5.759586347E-4
7.828510000E-1,-5.410520826E-4,1.308996929E-3,-7.679448463E-4
7.868510000E-1,-1.570796303E-4,1.064650831E-3,-5.235987483E-4
7.908510000E-1,-6.632251316E-4,3.839724232E-4,2.792526793E-4
7.948510000E-1,-4.886921961E-4,5.235987483E-4,2.757620299E-3
7.988510000E-1,1.396263397E-4,1.047197584E-4,3.839724232E-4
8.028510000E-1,0.000000000E0,1.186823938E-3,-9.599310579E-4
8.068510000E-1,1.221730490E-4,5.759586347E-4,-8.726646192E-4
8.108510000E-1,0.000000000E0,-1.745329209E-4,-8.552113432E-4
8.148510000E-1,1.221730490E-4,6.981316983E-5,-3.839724232E-4
8.188510000E-1,-2.792526793E-4,5.934119690E-4,-7.155850180E-4
8.228510000E-1,-1.047197584E-4,2.617993741E-4,8.377580671E-4
8.268510000E-1,6.981316837E-4,6.457717973E-4,1.919862116E-4
8.308510000E-1,4.537856148E-4,7.330382941E-4,-2.617993741E-4
8.348510000E-1,3.839724232E-4,1.815142459E-3,-2.443460980E-4
8.388510000E-1,3.665191471E-4,1.483529806E-3,-2.268928074E-4
8.428510000E-1,3.665191471E-4,8.028514567E-4,-2.268928074E-4
8.468510000E-1,-5.235987483E-4,7.853981806E-4,-2.268928074E-4
8.508510000E-1,8.726646192E-4,3.141592606E-4,3.665191471E-4
8.548510000E-1,3.490658419E-4,8.028514567E-4,-5.235987483E-4
8.588510000E-1,2.094395168E-4,1.378810150E-3,-7.504915702E-4
8.628510000E-1,-4.188790335E-4,1.378810150E-3,-3.665191471E-4
8.668510000E-1,-2.792526793E-4,1.378810150E-3,-7.155850180E-4
8.708510000E-1,3.316125658E-4,9.250245057E-4,-8.028514567E-4
8.748510000E-1,1.867502346E-3,9.599310579E-4,-9.773843922E-4
8.788510000E-1,1.797689125E-3,6.981316983E-5,-7.155850180E-4
8.828510000E-1,1.343903481E-3,4.363323096E-4,-5.061454722E-4
8.868510000E-1,9.250245057E-4,5.235987483E-4,-1.396263397E-4
8.908510000E-1,-8.726646047E-5,8.552113432E-4,-5.235987919E-5
8.948510000E-1,8.726646047E-5,1.082104165E-3,-3.316125658E-4
8.988510000E-1,7.504915702E-4,5.585053586E-4,-4.014257283E-4
9.028510000E-1,1.745329246E-5,2.617993741E-4,-1.221730490E-4
9.068510000E-1,-4.712388909E-4,4.886921961E-4,-9.599310579E-4
9.108510000E-1,1.396263397E-4,8.377580671E-4,-1.012290944E-3
9.148510000E-1,3.141592606E-4,3.316125658E-4,-4.363323096E-4
9.188510000E-1,-3.839724232E-4,5.061454722E-4,-2.792526793E-4
9.228510000E-1,1.745329246E-5,1.448623254E-3,-8.726646047E-5
9.268510000E-1,-1.570796303E-4,1.710422686E-3,8.726646047E-5
9.308510000E-1,-5.235987919E-5,1.605702913E-3,1.204277156E-3
9.348510000E-1,8.726646047E-5,1.745329238E-3,0.000000000E0
9.388510000E-1,4.537856148E-4,1.169370604E-3,1.605702913E-3
9.428510000E-1,5.235987483E-4,1.029744279E-3,1.169370604E-3
9.468510000E-1,1.012290944E-3,9.948377265E-4,-9.250245057E-4
9.508541250E-1,5.235987483E-4,6.632251316E-4,-5.585053586E-4
9.548510000E-1,4.014257283E-4,7.504915702E-4,-7.679448463E-4
9.588510000E-1,8.203047328E-4,1.570796303E-4,-8.203047328E-4
9.628572500E-1,4.886921961E-4,4.537856148E-4,-8.377580671E-4
9.668510000E-1,4.014257283E-4,5.410520826E-4,-1.291543595E-3
9.708510000E-1,1.274090377E-3,1.151917269E-3,-9.599310579E-4
9.748510000E-1,9.075712296E-4,1.029744279E-3,1.745329246E-5
9.788510000E-1,1.256637042E-3,1.884955564E-3,-9.075712296E-4
9.828510000E-1,2.967059845E-4,1.204277156E-3,-5.585053586E-4
9.868510000E-1,3.490658419E-4,1.029744279E-3,1.221730490E-4
9.908510000E-1,2.094395168E-4,8.377580671E-4,1.570796303E-4
9.948510000E-1,1.745329209E-4,1.832595677E-3,-4.188790335E-4
9.988525630E-1,3.141592606E-4,1.954768784E-3,-7.330382941E-4
1.002851000E0,-8.726646047E-5,9.250245057E-4,-8.028514567E-4
1.006851000E0,2.443460980E-4,1.256637042E-3,-5.235987483E-4
1.010851000E0,-2.443460980E-4,4.363323096E-4,-6.108652451E-4
1.014851000E0,-8.726646047E-5,2.268928074E-4,-7.853981806E-4
1.018851000E0,6.981316837E-4,1.745329246E-5,-1.117010717E-3
1.022851000E0,4.537856148E-4,8.726646192E-4,-7.679448463E-4
1.026851000E0,-5.235987919E-5,1.099557383E-3,6.806784077E-4
1.030851000E0,9.948377265E-4,1.308996929E-3,1.396263397E-4
1.034851000E0,6.806784077E-4,4.537856148E-4,3.769911127E-3
1.038851000E0,1.954768784E-3,6.806784077E-4,-1.448623254E-3
1.042851000E0,1.082104165E-3,1.047197497E-3,-9.948377265E-4
1.046851000E0,8.552113432E-4,9.948377265E-4,-4.188790335E-4
1.050851000E0,1.553343027E-3,3.665191471E-4,-2.792526793E-4
1.054851000E0,-6.981316983E-5,2.094395168E-4,-2.443460980E-4
1.058851000E0,5.410520826E-4,1.745329209E-4,-1.134464052E-3
1.062851000E0,7.155850180E-4,4.537856148E-4,-4.712388909E-4
1.066854125E0,6.108652451E-4,8.377580671E-4,-7.330382941E-4
1.070854125E0,1.221730490E-4,1.745329209E-4,-8.203047328E-4
1.074851000E0,1.570796303E-4,1.221730490E-3,-3.839724232E-4
1.078851000E0,0.000000000E0,4.363323096E-4,-7.155850180E-4
1.082851000E0,-7.679448463E-4,9.773843922E-4,-8.028514567E-4
1.086851000E0,2.094395168E-4,1.570796361E-3,-8.377580671E-4
1.090854125E0,-5.585053586E-4,1.431170036E-3,-8.377580671E-4
1.094852563E0,-1.745329246E-5,1.099557383E-3,-8.377580671E-4
1.098851000E0,5.585053586E-4,5.585053586E-4,-3.839724232E-4
1.102851000E0,5.585053586E-4,1.466076588E-3,-2.617993741E-4
1.106851000E0,8.726646192E-4,1.396263367E-3,5.235987919E-5
1.110851000E0,4.886921961E-4,-1.047197584E-4,-7.504915702E-4
1.114851000E0,1.047197584E-4,5.235987483E-4,-9.773843922E-4
1.118851000E0,4.363323096E-4,1.151917269E-3,-8.726646192E-4
1.122851000E0,8.726646047E-5,1.029744279E-3,-4.014257283E-4
1.126851000E0,2.967059845E-4,9.773843922E-4,-7.155850180E-4
1.130851000E0,6.457717973E-4,3.665191471E-4,-5.061454722E-4
1.134851000E0,5.934119690E-4,9.599310579E-4,-5.934119690E-4
1.138851000E0,8.726646192E-4,5.235987483E-4,-3.316125658E-4
1.142851000E0,4.886921961E-4,1.745329238E-3,-4.014257283E-4
1.146851000E0,-3.316125658E-4,1.780235791E-3,-2.792526793E-4
1.150851000E0,-5.585053586E-4,1.483529806E-3,-8.726646047E-5
1.154851000E0,-1.745329209E-4,9.599310579E-4,-3.490658419E-4
1.158851000E0,5.235987483E-4,6.632251316E-4,-5.585053586E-4
1.162851000E0,2.617993741E-4,5.934119690E-4,-3.141592606E-4
1.166851000E0,1.745329209E-4,5.759586347E-4,-2.443460980E-4
1.170851000E0,-4.188790335E-4,1.308996929E-3,-6.806784077E-4
1.174851000E0,4.537856148E-4,-1.221730490E-4,-8.028514567E-4
1.178851000E0,-5.235987919E-5,5.235987483E-4,-8.203047328E-4
1.182851000E0,-3.490658492E-5,6.981316837E-4,-6.806784077E-4
1.186851000E0,1.047197584E-4,5.934119690E-4,-9.424777818E-4
1.190851000E0,2.967059845E-4,4.188790335E-4,-8.726646192E-4
1.194851000E0,-3.839724232E-4,5.235987483E-4,-8.377580671E-4
1.198851000E0,1.745329246E-5,1.762782573E-3,-1.291543595E-3
1.202851000E0,2.792526793E-4,7.330382941E-4,-1.553343027E-3
1.206851000E0,1.239183708E-3,1.570796303E-4,-1.244419720E-2
1.210851000E0,5.934119690E-4,9.075712296E-4,-3.441789374E-2
1.214851000E0,7.155850180E-4,6.632251316E-4,-6.934192777E-2
1.218851000E0,1.361356815E-3,-2.967059845E-4,-1.154709831E-1
1.222851000E0,1.082104165E-3,-9.948377265E-4,-1.683021039E-1
1.226851000E0,2.495820867E-3,-1.483529806E-3,-2.382025421E-1
1.230851000E0,3.787364578E-3,-2.373647876E-3,-3.186098635E-1
1.234851000E0,2.303834539E-3,-3.944444004E-3,-4.255112708E-1
1.238851000E0,2.984513063E-3,-5.724680144E-3,-5.476319790E-1
1.242851000E0,4.502949305E-3,-7.382742595E-3,-7.048512101E-1
1.246851000E0,4.014257342E-3,-8.115780540E-3,-8.838521838E-1
1.250851000E0,5.672320258E-3,-9.215338156E-3,-1.099557400E0
1.254851000E0,7.330382708E-3,-1.340412907E-2,-1.337742448E0
1.258851000E0,7.592182141E-3,-1.225221157E-2,-1.567776918E0
1.262863500E0,1.127482671E-2,-1.797689125E-2,-1.800481677E0
1.266851000E0,9.686577134E-3,-2.321287990E-2,-2.006849289E0
1.270851000E0,1.211258490E-2,-2.611012571E-2,-2.203041792E0
1.274851000E0,1.865756884E-2,-3.481931984E-2,-2.356316566E0
1.278851000E0,2.687806962E-3,-2.684316412E-2,-2.471368790E0
1.282851000E0,1.092576142E-2,-4.241150245E-2,-2.548966169E0
1.286851000E0,5.061454605E-3,-2.898991853E-2,-2.579718828E0
1.290851000E0,1.017526910E-2,-3.286454827E-2,-2.570276499E0
1.294851000E0,1.675515994E-2,-2.577851340E-2,-2.534828901E0
1.298851000E0,1.520181727E-2,-2.509783395E-2,-2.482818127E0
1.302851000E0,1.083849464E-2,-3.364994749E-2,-2.412655830E0
1.306851000E0,7.470009383E-3,-1.933824830E-2,-2.324097872E0
1.310851000E0,1.001818944E-2,-2.312561311E-2,-2.218662500E0
1.314851000E0,7.417649496E-3,-2.202605456E-2,-2.101097107E0
1.318851000E0,1.017526910E-2,-1.387536712E-2,-1.992206097E0
1.322854125E0,1.270599663E-2,-2.155481651E-2,-1.882040858E0
1.326854125E0,1.321214251E-2,-1.544616371E-2,-1.773586154E0
1.330851000E0,5.393067375E-3,-1.291543618E-2,-1.658394337E0
1.334851000E0,5.864306353E-3,-1.485275198E-2,-1.549224019E0
1.338851000E0,1.186823938E-3,2.094394993E-3,-1.427434921E0
1.342851000E0,7.330382941E-4,7.609635592E-3,-1.299764156E0
1.346851000E0,0.000000000E0,7.958701812E-3,-1.183385611E0
1.350851000E0,-2.583087189E-3,2.340486459E-2,-1.062294602E0
1.354851000E0,-1.001818944E-2,4.204498231E-2,-9.557073712E-1
1.358851000E0,-1.589994878E-2,6.346017122E-2,-8.618435860E-1
1.362857250E0,-8.988445625E-3,6.124360487E-2,-7.830419540E-1
1.366851000E0,-1.466076588E-3,4.530874640E-2,-7.153755426E-1
1.370851000E0,1.853539608E-2,1.766273193E-2,-6.450737119E-1
1.374851000E0,3.356268257E-2,-1.815142483E-2,-5.654692054E-1
1.378851000E0,4.153883457E-2,-3.923500329E-2,-4.853935242E-1
1.382851000E0,4.392993823E-2,-4.909611121E-2,-3.973940015E-1
1.386851000E0,2.726204321E-2,-6.038838997E-3,-2.972644866E-1
1.390851000E0,8.395033889E-3,4.742059484E-2,-1.839402467E-1
1.394851000E0,1.689478755E-2,3.298672289E-2,-7.087782025E-2
1.398851000E0,7.557275705E-3,3.754203022E-2,4.337143153E-2
1.402851000E0,4.031710327E-3,4.096287861E-2,1.377239376E-1
1.406851000E0,4.345869645E-3,3.349286690E-2,2.187770158E-1
1.410851000E0,1.190314535E-2,3.204424679E-2,2.998126447E-1
1.414851000E0,1.558579039E-2,2.595304511E-2,3.671998084E-1
1.418851000E0,1.713913307E-2,2.207841538E-2,4.133463204E-1
1.422851000E0,1.511455141E-2,2.588323317E-2,4.240801036E-1
1.426851000E0,1.143190637E-2,2.492330223E-2,3.744778335E-1
1.430851000E0,1.033234876E-2,2.755874954E-2,2.779960334E-1
1.434851000E0,7.627088577E-3,1.888446324E-2,1.742187589E-1
1.438851000E0,1.052433532E-2,1.347394194E-2,7.248352468E-2
1.442851000E0,1.675516134E-3,2.879793290E-3,-2.296853252E-2
1.446851000E0,3.682644805E-3,-5.445427261E-3,-1.192059889E-1
1.450851000E0,2.600540640E-3,1.692969352E-3,-1.944471300E-1
1.454851000E0,-9.948377265E-4,-3.141592606E-4,-2.674542665E-1
1.458851000E0,-8.901178953E-4,-5.096361507E-3,-3.320139945E-1
1.462851000E0,4.398229532E-3,-1.221730490E-4,-3.738320768E-1
1.466851000E0,9.599310579E-4,-1.029744279E-2,-3.665365875E-1
1.470851000E0,-1.867502346E-3,-9.808750823E-3,-3.603406847E-1
1.474851000E0,-2.617993858E-3,-9.477137588E-3,-3.725754321E-1
1.478851000E0,1.989675453E-3,-8.988445625E-3,-3.847054839E-1
1.482851000E0,8.028514567E-4,-2.809980186E-3,-3.980397880E-1
1.486851000E0,9.250245057E-4,3.595378250E-3,-4.251971245E-1
1.490851000E0,2.914699726E-3,1.186823845E-2,-4.171162248E-1
1.494851000E0,2.530727303E-3,1.481784508E-2,-4.015129805E-1
1.498851000E0,1.989675453E-3,6.841690745E-3,-4.081801474E-1
1.502851000E0,1.692969352E-3,2.265437320E-2,-4.037644565E-1
1.506851000E0,-5.602506921E-3,1.041961554E-2,-3.967307806E-1
1.510851000E0,-4.345869645E-3,1.363102160E-2,-3.563962281E-1
1.514851000E0,-1.745329238E-3,1.155408006E-2,-2.898642719E-1
1.518851000E0,-3.926991019E-3,7.906341925E-3,-2.163335532E-1
1.522851000E0,-3.316125600E-3,8.220500313E-3,-1.470439881E-1
1.526851000E0,-6.318091881E-3,2.687806962E-3,-7.103490084E-2
1.530851000E0,-6.894050632E-3,1.558579039E-2,-5.881759338E-3
1.534851000E0,-1.357866172E-2,1.275835652E-2,4.902629927E-2
1.538851000E0,6.283185212E-4,7.853982039E-3,1.069712266E-1
1.542851000E0,7.208209950E-3,2.268928103E-2,1.878323406E-1
1.546851000E0,3.665191354E-3,3.712315485E-2,2.516241074E-1
1.550851000E0,-1.548107062E-2,5.218534265E-3,2.461088747E-1
1.554851000E0,-2.094395086E-2,2.111848444E-3,2.609790862E-1
1.558851000E0,-1.045452245E-2,-4.188790335E-4,3.271794319E-1
1.562851000E0,-1.206022501E-2,7.871435024E-3,4.006403387E-1
1.566851000E0,-1.701696031E-2,6.457717973E-4,4.948531985E-1
1.570851000E0,-1.003564335E-2,-6.632251199E-3,6.268001199E-1
1.574851000E0,-1.108284108E-2,-1.185078546E-2,7.272961736E-1
1.578851000E0,-2.151990868E-2,-6.981316837E-4,8.476889729E-1
1.582851000E0,-2.342231758E-2,4.450589418E-3,9.637533426E-1
1.586851000E0,-5.986479111E-3,5.235987483E-4,1.035678387E0
1.590851000E0,-2.129301662E-3,-3.036872949E-3,1.132788539E0
1.594851000E0,-1.715658605E-2,-4.555309191E-3,1.257230520E0
1.598851000E0,-1.984439418E-2,-9.512044489E-3,1.368844271E0
1.602851000E0,-6.126105785E-3,-5.794493016E-3,1.473075390E0
1.606851000E0,-6.405358203E-3,-1.850049011E-3,1.543935657E0
1.610851000E0,-6.963863503E-3,9.704031050E-3,1.582856536E0
1.614851000E0,-8.621926419E-3,1.230457146E-2,1.594236135E0
1.618851000E0,-7.696901914E-3,1.675516134E-3,1.555367589E0
1.622851000E0,-2.024581889E-3,-3.647738136E-3,1.483634591E0
1.626851000E0,-8.517206647E-3,-2.181661548E-3,1.401691318E0
1.630851000E0,-1.188569237E-2,6.300638430E-3,1.324478030E0
1.634851000E0,-1.762782573E-3,6.126105785E-3,1.235099673E0
1.638851000E0,-3.769911127E-3,7.435102481E-3,1.123189211E0
1.642851000E0,-8.813912980E-3,6.702064537E-3,9.741555452E-1
1.646851000E0,-1.047197543E-2,-5.235987919E-5,8.289790154E-1
1.650851000E0,-5.044001620E-3,-9.669124149E-3,6.943618059E-1
1.654851000E0,5.759586580E-3,-4.520402756E-3,5.714557171E-1
1.658851000E0,8.726646192E-4,8.726646192E-3,4.623900652E-1
1.662851000E0,-7.784168236E-3,1.338667516E-2,3.524866998E-1
1.666851000E0,-6.579891313E-3,5.288347602E-3,2.527934909E-1
1.670851000E0,2.617993858E-3,-6.021386012E-3,1.610066295E-1
1.674851000E0,1.867502346E-3,-6.562437862E-3,8.948303014E-2
1.678851000E0,-1.396263397E-4,-2.792526735E-3,4.059635848E-2
1.682851000E0,6.806784077E-4,5.253441166E-3,7.836528122E-3
1.686851000E0,7.504915702E-4,9.616764262E-3,-1.513200440E-2
1.690851000E0,-1.623156248E-3,9.093165398E-3,-2.747148275E-2
1.694851000E0,-3.752457909E-3,5.061454605E-3,-3.171263263E-2
1.698851000E0,4.380776547E-3,-8.185594343E-3,-3.132865950E-2
1.702851000E0,6.091198884E-3,-9.861109778E-3,-1.724385284E-2
1.706851000E0,-9.773843922E-4,6.981316837E-4,-3.735004691E-3
1.710851000E0,-3.298672382E-3,9.040805511E-3,-3.700098023E-3
1.714851000E0,-1.483529806E-3,7.906341925E-3,-8.377580671E-4
1.718851000E0,3.944444004E-3,1.274090377E-3,5.061454722E-4
1.722851000E0,9.948377265E-4,-1.954768784E-3,8.552113432E-4
1.726851000E0,-5.061454722E-4,-4.607669078E-3,5.061454722E-4
1.730851000E0,1.396263397E-4,-1.745329246E-5,-3.316125658E-4
1.734851000E0,1.204277156E-3,3.420845373E-3,-1.047197584E-4
1.738851000E0,-5.934119690E-4,8.220500313E-3,-6.457717973E-4
1.742851000E0,-3.193952609E-3,6.195918657E-3,-3.490658492E-5
1.746851000E0,2.286381321E-3,-4.572762642E-3,-4.712388909E-4
1.750851000E0,1.326450263E-3,-6.195918657E-3,-2.967059845E-4
1.754851000E0,-1.326450263E-3,-2.548180753E-3,-6.981316837E-4
1.758851000E0,-2.181661548E-3,5.759586580E-3,-8.028514567E-4
1.762869750E0,2.967059845E-4,7.801621687E-3,5.235987919E-5
1.766851000E0,2.164208330E-3,2.600540640E-3,-5.934119690E-4
1.770851000E0,6.981316983E-5,-1.902408898E-3,-6.283185212E-4
1.774851000E0,-4.537856148E-4,-5.183627829E-3,-9.424777818E-4
1.778851000E0,1.500983140E-3,-3.630284918E-3,-5.585053586E-4
1.782851000E0,3.368485486E-3,1.413716702E-3,1.221730490E-4
1.786851000E0,1.012290944E-3,8.918632753E-3,2.722713631E-3
1.790851000E0,-1.413716702E-3,7.120943163E-3,5.235987483E-4
1.794851000E0,-1.448623254E-3,1.570796303E-4,2.617993741E-4
1.798851000E0,-1.047197584E-4,-3.595378250E-3,-4.014257283E-4
1.802851000E0,8.377580671E-4,-3.682644805E-3,-2.792526793E-4
1.806851000E0,3.316125658E-4,2.617993858E-3,-8.726646047E-5
1.810851000E0,8.028514567E-4,5.619960371E-3,4.014257283E-4
1.814851000E0,3.316125658E-4,5.201081280E-3,-3.665191471E-4
1.818851000E0,-2.042035107E-3,1.326450263E-3,-4.188790335E-4
1.822851000E0,-4.014257283E-4,-1.937315450E-3,-5.759586347E-4
1.826851000E0,2.705260413E-3,-3.089232836E-3,-7.679448463E-4
1.830851000E0,2.495820867E-3,-8.726646047E-5,-8.203047328E-4
1.834851000E0,1.745329246E-5,5.358160939E-3,-8.377580671E-4
1.838851000E0,-1.064650831E-3,5.881759338E-3,-8.377580671E-4
1.842851000E0,-7.504915702E-4,1.500983140E-3,-8.377580671E-4
1.846851000E0,3.665191471E-4,-2.042035107E-3,-1.291543595E-3
1.850851000E0,8.203047328E-4,-4.031710327E-3,-1.256637042E-3
1.854851000E0,1.745329209E-4,-9.250245057E-4,-3.490658419E-4
1.858852563E0,6.108652451E-4,2.740166849E-3,-5.585053586E-4
1.862851000E0,1.640609466E-3,3.543018363E-3,-7.679448463E-4
1.866851000E0,-1.396263367E-3,3.892084118E-3,-8.203047328E-4
1.870851000E0,-3.839724232E-4,-1.919862116E-4,-5.410520826E-4
1.874851000E0,1.518436475E-3,-2.932153177E-3,-6.108652451E-4
1.878851000E0,2.478367416E-3,-1.850049011E-3,-7.853981806E-4
1.882851000E0,6.108652451E-4,2.181661548E-3,-6.981316983E-5
1.886851000E0,-4.537856148E-4,3.700098023E-3,-4.886921961E-4
1.890851000E0,0.000000000E0,2.740166849E-3,4.363323096E-4
1.894851000E0,8.726646192E-4,-5.061454722E-4,8.726646047E-5
1.898851000E0,1.396263367E-3,-1.361356815E-3,-2.967059845E-4
1.902851000E0,-4.014257283E-4,2.094395168E-4,1.919862116E-4
1.906851000E0,1.570796303E-4,4.712388909E-4,9.250245057E-4
1.910851000E0,6.108652451E-4,2.652900526E-3,2.094395168E-4
1.914851000E0,-1.064650831E-3,2.460914198E-3,1.745329209E-4
1.918851000E0,8.901178953E-4,1.361356815E-3,2.268928103E-3
1.922851000E0,1.256637042E-3,1.745329209E-4,8.726646192E-4
1.926851000E0,1.047197497E-3,-4.363323096E-4,-5.410520826E-4
1.930851000E0,-9.424777818E-4,7.504915702E-4,-3.141592606E-4
1.934851000E0,-1.221730490E-4,1.675516134E-3,-6.981316837E-4
1.938851000E0,1.291543595E-3,2.059488557E-3,-3.490658419E-4
1.942851000E0,1.204277156E-3,6.457717973E-4,-7.155850180E-4
1.946851000E0,-2.967059845E-4,2.792526793E-4,-8.028514567E-4
1.950851000E0,3.490658492E-5,4.886921961E-4,-8.377580671E-4
1.954851000E0,1.326450263E-3,4.014257283E-4,-8.377580671E-4
1.958851000E0,1.518436475E-3,1.413716702E-3,-8.377580671E-4
1.962851000E0,6.981316983E-5,1.535889693E-3,-5.410520826E-4
1.966851000E0,-1.361356815E-3,2.478367416E-3,-1.570796303E-4
1.970851000E0,3.490658419E-4,1.064650831E-3,6.806784077E-4
1.974851000E0,3.665191471E-4,3.839724232E-4,4.537856148E-4
1.978851000E0,6.981316983E-5,2.094395168E-4,8.726646047E-5
1.982851000E0,0.000000000E0,1.064650831E-3,8.901178953E-4
1.986851000E0,7.155850180E-4,2.216568217E-3,2.094395168E-4
1.990851000E0,6.108652451E-4,6.806784077E-4,-2.617993741E-4
1.994851000E0,-7.679448463E-4,2.967059845E-4,1.919862116E-4
1.998851000E0,-6.981316983E-5,1.919862116E-4,-4.188790335E-4
2.002851000E0,2.443460980E-4,1.570796303E-4,1.570796303E-4
2.006851000E0,3.316125658E-4,1.570796303E-4,-5.759586347E-4
2.010851000E0,3.490658419E-4,6.108652451E-4,-7.679448463E-4
