"Time (s)" "Gyroscope x (rad/s)" "Gyroscope y (rad/s)" "Gyroscope z (rad/s)"
1.488826740E-1 -4.190535471E-2 -1.000597253E-1 1.328195538E-2
1.518826740E-1 4.520402756E-3 -3.092723340E-2 8.901178953E-4
1.558826740E-1 8.185594343E-3 -2.848377265E-2 -1.535889693E-3
1.598826740E-1 9.407324716E-3 -2.481858246E-2 -1.535889693E-3
1.638826740E-1 5.742133129E-3 -2.359685116E-2 8.901178953E-4
1.678826740E-1 1.062905509E-2 -2.359685116E-2 -2.757620299E-3
1.718826740E-1 8.185594343E-3 -2.848377265E-2 -1.535889693E-3
1.758826740E-1 6.963863503E-3 -2.726204321E-2 -1.535889693E-3
1.798826740E-1 3.298672382E-3 -2.359685116E-2 -2.757620299E-3
1.838826740E-1 4.520402756E-3 -2.115339041E-2 -3.979350906E-3
1.878826740E-1 8.552113432E-4 -2.237512171E-2 -1.518436475E-3
1.918826740E-1 1.815142459E-3 -2.066469751E-2 -1.605702913E-3
1.958826740E-1 2.635447076E-3 -1.773254573E-2 -2.897246508E-3
1.998826740E-1 5.410520826E-3 -1.623156108E-2 -1.727875904E-3
2.038826740E-1 8.255407214E-3 -1.808161102E-2 -1.570796361E-3
2.078826740E-1 1.064650808E-2 -2.038544603E-2 -1.239183708E-3
2.118826740E-1 1.593485661E-2 -2.293362655E-2 -1.902408898E-3
2.158826740E-1 1.987930015E-2 -2.616248466E-2 -2.967059612E-3
2.198826740E-1 2.527236752E-2 -3.225368261E-2 -4.014257342E-3
2.238826740E-1 2.607521974E-2 -4.167846218E-2 -3.979350906E-3
2.278826740E-1 2.446951531E-2 -5.002113804E-2 -3.822271014E-3
2.318826740E-1 1.893682219E-2 -5.986479297E-2 -4.084070213E-3
2.358826740E-1 1.192059834E-2 -6.379178166E-2 -3.246312495E-3
2.398826740E-1 7.539822254E-3 -5.850343779E-2 -2.565633971E-3
2.438826740E-1 4.572762642E-3 -4.687954485E-2 -2.705260413E-3
2.478826740E-1 5.026548170E-3 -3.075270168E-2 -1.675516134E-3
2.518826740E-1 4.677482415E-3 -1.659808122E-2 -1.710422686E-3
2.558826740E-1 3.996803891E-3 -7.487462368E-3 -9.773843922E-4
2.598826740E-1 2.757620299E-3 -9.023352526E-3 -1.972222002E-3
2.638826740E-1 -1.047197584E-4 -1.980948634E-2 -2.844886621E-3
2.678842370E-1 -5.061454605E-3 -3.331833705E-2 -3.979350906E-3
2.718826740E-1 -1.103048120E-2 -4.152138159E-2 -5.323254038E-3
2.758826740E-1 -1.740093343E-2 -3.794345632E-2 -6.422811653E-3
2.798857990E-1 -2.387610450E-2 -3.127630055E-2 -6.422811653E-3
2.838857990E-1 -3.143338114E-2 -2.862340026E-2 -5.515240598E-3
2.878857990E-1 -3.371975943E-2 -2.974040993E-2 -6.928957067E-3
2.918857990E-1 -2.904227935E-2 -3.289945796E-2 -7.906341925E-3
2.958857990E-1 -1.818633080E-2 -3.837978840E-2 -6.806783844E-3
2.998857990E-1 -6.771877408E-3 -4.389503226E-2 -7.557275705E-3
3.038857990E-1 4.921828397E-3 -4.593706504E-2 -7.470009383E-3
3.078857990E-1 1.249655709E-2 -3.939208016E-2 -7.435102481E-3
3.118857990E-1 1.717403904E-2 -2.459168993E-2 -6.370451767E-3
3.158857990E-1 2.139773592E-2 -7.312929723E-3 -4.293509759E-3
3.198857990E-1 2.431243658E-2 7.853982039E-3 -4.502949305E-3
3.238857990E-1 2.867575921E-2 1.603957638E-2 -4.852015525E-3
3.278857990E-1 3.221877664E-2 1.546361670E-2 -6.754423957E-3
3.318857990E-1 3.675663471E-2 8.831365965E-3 -8.604473434E-3
3.358857990E-1 4.216715321E-2 -1.762782573E-3 -8.936085738E-3
3.398857990E-1 4.221951589E-2 -1.565560326E-2 -9.634217247E-3
3.438857990E-1 3.862413764E-2 -4.021238536E-2 -1.010545623E-2
3.478857990E-1 3.316125646E-2 -6.874851882E-2 -1.172861271E-2
3.518857990E-1 2.947861142E-2 -8.780751377E-2 -1.532399096E-2
3.558857990E-1 3.197443113E-2 -8.915141970E-2 -1.792453043E-2
3.598857990E-1 3.865904361E-2 -8.255407214E-2 -1.890191622E-2
3.638920490E-1 5.272639543E-2 -8.368853480E-2 -1.944296807E-2
3.678857990E-1 6.649704278E-2 -9.361945838E-2 -2.501056902E-2
3.718857990E-1 7.956956327E-2 -1.037423685E-1 -2.977531776E-2
3.758857990E-1 9.155996889E-2 -1.092576087E-1 -3.207915276E-2
3.798857990E-1 1.001120880E-1 -9.882054478E-2 -3.282964230E-2
3.838857990E-1 1.104444340E-1 -6.358234584E-2 -3.302162886E-2
3.878857990E-1 1.248957589E-1 -1.764527895E-2 -3.337069601E-2
3.918857990E-1 1.423665136E-1 1.781981252E-2 -3.452261165E-2
3.958857990E-1 1.607622802E-1 3.626793995E-2 -3.541272879E-2
3.998857990E-1 1.789660603E-1 2.890265174E-2 -3.611086309E-2
4.038857990E-1 1.871691048E-1 -2.960078418E-2 -3.101450019E-2
4.078857990E-1 1.971174777E-1 -7.375761122E-2 -2.382374369E-2
4.118857990E-1 2.350783944E-1 1.926843449E-2 -1.724385284E-2
4.158857990E-1 2.898468375E-1 1.510407925E-1 -3.345796093E-2
4.198857990E-1 3.212103844E-1 2.160543054E-1 -4.553563893E-2
4.238857990E-1 2.934247553E-1 1.017003357E-1 -2.028072625E-2
4.278857990E-1 2.128603607E-1 -9.567894787E-2 -4.852015525E-3
4.318857990E-1 1.036201939E-1 -2.841919661E-1 -1.788962446E-2
4.358857990E-1 -3.944444004E-3 -4.133637846E-1 -2.131047100E-2
4.398857990E-1 -8.107054234E-2 -4.368210137E-1 -1.706931926E-2
4.438857990E-1 -1.452637464E-1 -3.514045775E-1 -1.624901593E-2
4.478857990E-1 -1.991769671E-1 -2.287777513E-1 -1.576032303E-2
4.518857990E-1 -2.404889166E-1 -1.135162115E-1 -8.552113548E-3
4.558857990E-1 -2.582040131E-1 -4.565781355E-2 -4.241149873E-3
4.598857990E-1 -2.434036136E-1 -2.434734255E-2 -7.644542027E-3
4.638857990E-1 -2.065597177E-1 -4.529129341E-2 -1.380555425E-2
4.678857990E-1 -1.591740251E-1 -9.412560612E-2 -1.752310619E-2
4.718857990E-1 -1.070584953E-1 -1.407957077E-1 -1.743583940E-2
4.758857990E-1 -6.455972791E-2 -1.432217211E-1 -1.514945831E-2
4.798857990E-1 -3.419100121E-2 -7.867944241E-2 -1.455604564E-2
4.838857990E-1 -4.520402849E-2 9.283406287E-2 -2.253220044E-2
4.878857990E-1 -8.770279586E-2 2.977008224E-1 -2.567379363E-2
4.918826740E-1 -1.290845573E-1 4.340459406E-1 -2.197369561E-2
4.958826740E-1 -1.409527957E-1 4.229805470E-1 -3.031636961E-2
4.998826740E-1 -1.265712827E-1 2.839476168E-1 -5.626941472E-2
5.038842370E-1 -1.032187715E-1 6.428047270E-2 -9.421287477E-2
5.078826740E-1 -9.004153311E-2 -1.257160604E-1 -1.218937933E-1
5.118826740E-1 -9.594074637E-2 -2.386737764E-1 -1.282293350E-1
5.158826740E-1 -1.215447262E-1 -2.480985522E-1 -1.058018580E-1
5.198826740E-1 -1.609193534E-1 -1.779886782E-1 -6.199409440E-2
5.238826740E-1 -1.958782971E-1 -7.560766488E-2 -1.684242673E-2
5.278826740E-1 -2.172062248E-1 1.221730490E-3 1.888446324E-2
5.318826740E-1 -2.314655632E-1 4.188790172E-2 3.420845419E-2
5.358826740E-1 -2.442239225E-1 6.553710997E-2 4.705407470E-2
5.398826740E-1 -2.604903877E-1 1.041961536E-1 6.487388909E-2
5.438826740E-1 -2.865656018E-1 1.516342014E-1 8.335692436E-2
5.478826740E-1 -3.172833920E-1 1.926319897E-1 9.827949107E-2
5.518826740E-1 -3.587175310E-1 2.165604532E-1 1.123992056E-1
5.558826740E-1 -4.014431834E-1 2.363175750E-1 1.237612963E-1
5.598826740E-1 -4.395437241E-1 2.554813027E-1 1.321388781E-1
5.638826740E-1 -4.631754756E-1 2.656216621E-1 1.395914257E-1
5.678826740E-1 -4.720417559E-1 2.553242147E-1 1.489114910E-1
5.718826740E-1 -4.653222263E-1 2.106612474E-1 1.609542668E-1
5.759045490E-1 -4.474675059E-1 1.338318437E-1 1.800656170E-1
5.798826740E-1 -4.124038517E-1 1.850049011E-2 2.016029805E-1
5.838826740E-1 -3.671300113E-1 -8.431685716E-2 2.129650712E-1
5.878826740E-1 -3.191858232E-1 -1.438325793E-1 2.085493952E-1
5.918826740E-1 -2.809281945E-1 -1.483529806E-1 1.980425119E-1
5.958826740E-1 -2.548529804E-1 -1.261523962E-1 1.916895062E-1
5.998826740E-1 -2.432290763E-1 -1.073901057E-1 1.951452643E-1
6.038826740E-1 -2.472782433E-1 -1.103397161E-1 2.115513533E-1
6.078826740E-1 -2.515194118E-1 -1.084198505E-1 2.335948646E-1
6.118826740E-1 -2.436130494E-1 -7.799876481E-2 2.557605505E-1
6.158826740E-1 -2.260201424E-1 -2.216568217E-2 2.793050408E-1
6.198826740E-1 -2.069611400E-1 4.111995548E-2 3.056071401E-1
6.238826740E-1 -1.952325255E-1 1.834166497E-1 3.291690946E-1
6.278826740E-1 -1.772905439E-1 3.038269281E-1 3.578972220E-1
6.318826740E-1 -1.450543106E-1 2.421469837E-1 3.730990291E-1
6.358826740E-1 -1.271297783E-1 1.073551998E-1 3.588396907E-1
6.398826740E-1 -1.307426095E-1 4.276056588E-2 3.376339376E-1
6.438826740E-1 -1.409004331E-1 5.578072369E-2 3.311762214E-1
6.478826740E-1 -1.518087387E-1 7.461282611E-2 3.358362615E-1
6.518826740E-1 -1.629439443E-1 7.199483365E-2 3.370579779E-1
6.558826740E-1 -1.664694995E-1 5.639158934E-2 3.322757781E-1
6.598826740E-1 -1.601514071E-1 2.644173801E-2 3.320488930E-1
6.638826740E-1 -1.411971301E-1 -4.555309191E-3 3.395189047E-1
6.678826740E-1 -1.223824844E-1 -1.251401100E-2 3.535164297E-1
6.718826740E-1 -1.131147891E-1 1.518436475E-3 3.795916438E-1
6.758826740E-1 -1.048244759E-1 4.625122529E-3 4.085292220E-1
6.798826740E-1 -9.726719558E-2 -1.172861271E-2 4.341332018E-1
6.838826740E-1 -8.114035428E-2 -2.776818909E-2 4.525638819E-1
6.878826740E-1 -5.857324973E-2 -2.909463830E-2 4.636990726E-1
6.918826740E-1 -4.061381146E-2 -1.965240762E-2 4.685510993E-1
6.958826740E-1 -4.075343907E-2 -4.712388909E-4 4.642401338E-1
6.998826740E-1 -6.696828455E-2 1.492256485E-2 4.582885504E-1
7.038826740E-1 -1.033409461E-1 8.569566533E-3 4.487765133E-1
7.078826740E-1 -1.340412796E-1 -1.836086437E-2 4.320038855E-1
7.118826740E-1 -1.551772207E-1 -4.860742018E-2 4.076041877E-1
7.158826740E-1 -1.468345523E-1 -6.567674130E-2 3.796963692E-1
7.198826740E-1 -1.214749143E-1 -6.428047270E-2 3.573736250E-1
7.238826740E-1 -9.660397470E-2 -5.726425350E-2 3.449119627E-1
7.278826740E-1 -8.049458265E-2 -5.541420355E-2 3.448421657E-1
7.318826740E-1 -7.721336931E-2 -8.065166324E-2 3.550523221E-1
7.358826740E-1 -8.370599151E-2 -1.412494928E-1 3.681073785E-1
7.398826740E-1 -9.566149861E-2 -2.353576422E-1 3.826634288E-1
7.438826740E-1 -1.008974835E-1 -3.179291785E-1 3.884230256E-1
7.478826740E-1 -9.143780172E-2 -3.495545387E-1 3.909537494E-1
7.518826740E-1 -8.230973035E-2 -3.359584212E-1 3.923674822E-1
7.558826740E-1 -8.173377067E-2 -3.057118654E-1 3.984586596E-1
7.598826740E-1 -9.347983450E-2 -2.755700350E-1 4.065395296E-1
7.638889240E-1 -1.058891267E-1 -2.441890091E-1 4.035201073E-1
7.678826740E-1 -1.046324894E-1 -2.307499796E-1 3.970100582E-1
7.718826740E-1 -9.869837016E-2 -2.317797244E-1 3.870267570E-1
7.758826740E-1 -8.379326016E-2 -2.291966379E-1 3.823143840E-1
7.798826740E-1 -5.820672959E-2 -2.100329250E-1 3.867998719E-1
7.838826740E-1 -2.324778587E-2 -1.508662552E-1 4.022634923E-1
7.878826740E-1 1.867502369E-2 -5.791002512E-2 4.305203557E-1
7.918826740E-1 5.913175642E-2 6.806784123E-2 4.696855545E-1
7.958826740E-1 1.005309671E-1 2.114815414E-1 5.143311024E-1
7.998826740E-1 1.335874945E-1 3.349635899E-1 5.619785786E-1
8.038826740E-1 1.604830176E-1 4.475547671E-1 6.004630923E-1
8.078826740E-1 1.621934474E-1 5.281191468E-1 6.201329231E-1
8.118826740E-1 1.585631669E-1 5.598143339E-1 6.229952574E-1
8.158826740E-1 1.571494490E-1 5.501626730E-1 6.139544845E-1
8.198826740E-1 1.656666547E-1 5.232148170E-1 5.930803418E-1
8.238826740E-1 1.961575598E-1 4.799306393E-1 5.607044697E-1
8.278826740E-1 2.414662987E-1 4.260523319E-1 5.237907767E-1
8.318826740E-1 2.918190360E-1 3.498512506E-1 4.816759527E-1
8.358826740E-1 3.407755494E-1 2.346944213E-1 4.321260750E-1
8.398826740E-1 3.790156841E-1 1.204626262E-1 3.824889064E-1
8.438826740E-1 4.230852723E-1 8.482299745E-3 3.398679495E-1
8.478826740E-1 4.612905085E-1 -6.780604273E-2 3.138625622E-1
8.518826740E-1 4.901931584E-1 -1.286133081E-1 2.955017090E-1
8.558826740E-1 5.135456920E-1 -1.955292374E-1 2.773153782E-1
8.598826740E-1 5.217312574E-1 -2.492504716E-1 2.564761341E-1
8.638826740E-1 5.237209201E-1 -2.715906799E-1 2.344675362E-1
8.678826740E-1 5.243667364E-1 -2.553940415E-1 2.179043591E-1
8.718826740E-1 5.353971720E-1 -2.136806548E-1 2.078512609E-1
8.758826740E-1 5.483475327E-1 -1.656317413E-1 1.986184716E-1
8.798826740E-1 5.482777357E-1 -1.181238815E-1 1.934871972E-1
8.838826740E-1 5.559048057E-1 -7.913322747E-2 1.939584464E-1
8.878826740E-1 5.675287247E-1 -5.448918045E-2 1.939409822E-1
8.918826740E-1 6.068335176E-1 -3.588397056E-2 1.946914792E-1
8.958826740E-1 6.584778428E-1 -2.577851340E-2 1.947438419E-1
8.998826740E-1 7.341029048E-1 -4.468042869E-3 2.022662014E-1
9.038826740E-1 8.071275353E-1 2.661627159E-2 2.203303576E-1
9.078826740E-1 8.790350556E-1 5.993460491E-2 2.390577495E-1
9.118826740E-1 9.253386855E-1 6.517059356E-2 2.588323355E-1
9.158826740E-1 9.476439953E-1 3.522074595E-2 2.814517915E-1
9.198826740E-1 9.444325566E-1 -2.328269184E-2 3.031636775E-1
9.238826740E-1 9.252164960E-1 -1.000248194E-1 3.207217157E-1
9.278826740E-1 9.027191997E-1 -1.629264802E-1 3.284709752E-1
9.318826740E-1 8.693485260E-1 -2.264390141E-1 3.244741559E-1
9.358826740E-1 8.413184881E-1 -2.871241271E-1 3.094119728E-1
9.398826740E-1 8.290662766E-1 -3.303384781E-1 2.875778973E-1
9.438826740E-1 8.303753138E-1 -3.435855210E-1 2.555510998E-1
9.478826740E-1 8.430638313E-1 -3.306177258E-1 2.143787891E-1
9.518826740E-1 8.549669981E-1 -3.020815849E-1 1.652652323E-1
9.558826740E-1 8.720712066E-1 -2.815041542E-1 1.127133593E-1
9.598826740E-1 8.920203447E-1 -2.754304111E-1 5.565854907E-2
9.638826740E-1 9.083740711E-1 -2.723062634E-1 -7.086036727E-3
9.678826740E-1 9.203295708E-1 -2.706307471E-1 -6.169738993E-2
9.718826740E-1 9.279566407E-1 -2.667037547E-1 -1.130973324E-1
9.758826740E-1 9.179035425E-1 -2.784672678E-1 -1.481959075E-1
9.798826740E-1 8.887914419E-1 -3.038094640E-1 -1.660855263E-1
9.838826740E-1 8.511272669E-1 -3.334800601E-1 -1.611287892E-1
9.878826740E-1 7.912973762E-1 -3.600265086E-1 -1.390329301E-1
9.918826740E-1 7.189709544E-1 -3.651577830E-1 -1.114567220E-1
9.958826740E-1 6.559470892E-1 -3.497814238E-1 -8.285077661E-2
9.998826740E-1 5.685409904E-1 -3.071255982E-1 -6.276203692E-2
1.003882674E0 4.808033109E-1 -2.280796319E-1 -4.639085010E-2
1.007882674E0 4.031361639E-1 -1.510058790E-1 -2.333505265E-2
1.011882674E0 3.206169903E-1 -9.684831649E-2 2.029817924E-2
1.015882674E0 2.344500721E-1 -7.972663641E-2 6.977826357E-2
1.019882674E0 1.593485624E-1 -8.293804526E-2 1.278453618E-1
1.023882674E0 8.119271696E-2 -1.006705910E-1 1.836260855E-1
1.027882674E0 5.009094719E-3 -8.676031977E-2 2.367190123E-1
1.031882674E0 -8.211774379E-2 -5.338962004E-2 2.902831733E-1
1.035882674E0 -1.850049049E-1 -1.425934024E-2 3.370754421E-1
1.039882674E0 -2.801427841E-1 2.686061710E-2 3.730815649E-1
1.043882674E0 -3.597123623E-1 3.366740048E-2 3.909013867E-1
1.047882674E0 -4.304156601E-1 3.363249451E-2 3.901334405E-1
1.051882674E0 -5.070356131E-1 -1.094321441E-2 3.676536083E-1
1.055882674E0 -5.425181389E-1 -4.532619938E-2 3.267081678E-1
1.059882674E0 -5.630781054E-1 -8.150687814E-2 2.611012459E-1
1.063882674E0 -5.463404059E-1 -8.456119895E-2 1.796990931E-1
1.067882674E0 -5.289744139E-1 -4.677482322E-2 1.240929067E-1
1.071882674E0 -5.255535245E-1 -1.364847459E-2 1.018050537E-1
1.075882674E0 -5.277701020E-1 7.836528122E-3 9.477137774E-2
1.079882674E0 -5.102295280E-1 2.733185515E-2 1.099557430E-1
1.083882674E0 -5.367236733E-1 3.403391922E-3 1.297303289E-1
1.087882674E0 -5.620833039E-1 -5.988224596E-2 1.437802166E-1
1.091882674E0 -5.956110358E-1 -1.156106070E-1 1.489638537E-1
1.095882674E0 -6.271491647E-1 -1.537286043E-1 1.450368613E-1
1.099882674E0 -6.439915895E-1 -1.975712776E-1 1.379857361E-1
1.103882674E0 -6.442708373E-1 -2.270324230E-1 1.299746633E-1
1.107882674E0 -6.646213531E-1 -2.525142431E-1 1.245816052E-1
1.111882674E0 -6.821444631E-1 -2.607696354E-1 1.160992980E-1
1.115882674E0 -7.226710320E-1 -2.537883222E-1 1.092052534E-1
1.119882674E0 -7.575601339E-1 -2.310466915E-1 1.048593819E-1
1.123882674E0 -7.584851980E-1 -1.764876992E-1 9.199630469E-2
1.127882674E0 -7.515038848E-1 -1.119977757E-1 8.319984376E-2
1.131882674E0 -7.307344675E-1 -1.630137488E-2 7.595673203E-2
1.135882674E0 -7.150439620E-1 6.803293526E-2 6.487388909E-2
1.139882674E0 -6.788108945E-1 1.440071166E-1 5.928883329E-2
1.143882674E0 -6.162757277E-1 1.896474808E-1 4.848524556E-2
1.147882674E0 -5.849296451E-1 1.795245707E-1 2.748893574E-2
1.151882674E0 -5.384515524E-1 1.490162164E-1 -1.640609466E-3
1.155882674E0 -4.989896417E-1 1.238660142E-1 -3.495894372E-2
1.159882674E0 -4.550247788E-1 1.231853366E-1 -6.352998316E-2
1.163888924E0 -4.343775511E-1 1.225395650E-1 -9.386380762E-2
1.167882674E0 -4.301887453E-1 1.111425683E-1 -1.193805188E-1
1.171882674E0 -4.542044699E-1 6.965608895E-2 -1.427330226E-1
1.175882674E0 -4.709247351E-1 1.752310619E-2 -1.620887220E-1
1.179882674E0 -5.003160834E-1 -2.146754973E-2 -1.737475246E-1
1.183882674E0 -5.401619673E-1 -4.192280769E-2 -1.798038185E-1
1.187882674E0 -5.783323050E-1 -5.277875811E-2 -1.764353365E-1
1.191882674E0 -6.200631261E-1 -5.143485218E-2 -1.612335145E-1
1.195882674E0 -6.512521505E-1 -2.907718532E-2 -1.345474273E-1
1.199882674E0 -6.943443418E-1 -1.448623254E-3 -1.032013148E-1
1.203882674E0 -7.269296050E-1 3.003711626E-2 -6.311110407E-2
1.207882674E0 -7.535110116E-1 3.389429301E-2 -2.930407785E-2
1.211882674E0 -7.585200667E-1 3.647737950E-2 -6.352998316E-3
1.215882674E0 -7.537727952E-1 4.804891348E-2 1.106538717E-2
1.219882674E0 -7.269645333E-1 7.208209485E-2 1.500983164E-2
1.223882674E0 -6.720739603E-1 9.869837016E-2 1.240929123E-2
1.227882674E0 -5.995380282E-1 1.550026834E-1 5.567600485E-3
1.231882674E0 -5.368283987E-1 2.067167908E-1 -2.967059612E-3
1.235882674E0 -4.535412490E-1 2.553067505E-1 -2.101376466E-2
1.239882674E0 -3.888418972E-1 2.867750525E-1 -4.406956211E-2
1.243882674E0 -3.386811316E-1 3.183131516E-1 -7.251843065E-2
1.247882674E0 -3.012089133E-1 3.423812389E-1 -9.635962546E-2
1.251882674E0 -2.603158653E-1 3.338989317E-1 -1.164309159E-1
1.255882674E0 -2.220582366E-1 3.012612760E-1 -1.279675364E-1
1.259882674E0 -1.814444214E-1 2.642777562E-1 -1.476723105E-1
1.263882674E0 -1.471836120E-1 2.275211215E-1 -1.707455665E-1
1.267882674E0 -1.296256036E-1 2.027548999E-1 -1.838529855E-1
1.271882674E0 -1.531177312E-1 1.787042618E-1 -1.866455078E-1
1.275882674E0 -1.758768260E-1 1.562942266E-1 -1.777792424E-1
1.279882674E0 -2.105914205E-1 1.136209369E-1 -1.555611938E-1
1.283882674E0 -2.535614371E-1 8.285077661E-2 -1.300444752E-1
1.287882674E0 -2.801427841E-1 6.297148019E-2 -1.045801267E-1
1.291882674E0 -2.960602045E-1 3.914773464E-2 -8.709193021E-2
1.295882674E0 -2.813645303E-1 2.073451132E-2 -7.169812173E-2
1.299882674E0 -2.625498772E-1 -1.581268385E-2 -6.016149744E-2
1.303882674E0 -2.206794322E-1 -5.337216705E-2 -4.602433369E-2
1.307882674E0 -2.054776102E-1 -6.005677953E-2 -3.073524870E-2
1.311882674E0 -1.779712290E-1 -1.075122785E-2 -1.396263391E-2
1.315882674E0 -1.581791937E-1 6.627015024E-2 1.160643995E-2
1.319882674E0 -1.224697530E-1 1.518087387E-1 4.583234712E-2
1.323882674E0 -1.036027446E-1 2.146929502E-1 8.606218547E-2
1.327882674E0 -1.061160192E-1 2.436479628E-1 1.307251602E-1
1.331882674E0 -1.284213215E-1 2.617819309E-1 1.681450158E-1
1.335882674E0 -1.410575062E-1 2.606649101E-1 1.770112962E-1
1.339882674E0 -1.484053433E-1 2.364048511E-1 1.585282534E-1
1.343882674E0 -1.322785020E-1 2.148151249E-1 1.213527396E-1
1.347882674E0 -1.183856800E-1 2.119527906E-1 7.552039623E-2
1.351882674E0 -8.805186301E-2 2.141693532E-1 1.960004680E-2
1.355882674E0 -6.003932655E-2 2.003637999E-1 -2.942625061E-2
1.359882674E0 -4.838052765E-2 1.712866127E-1 -6.541494280E-2
1.363882674E0 -4.775220901E-2 1.363276690E-1 -1.030791476E-1
1.367882674E0 -5.028293654E-2 1.016130671E-1 -1.156455129E-1
1.371882674E0 -6.827727705E-2 7.311183959E-2 -1.101826355E-1
1.375882674E0 -9.342747182E-2 5.291838199E-2 -9.309586138E-2
1.379882674E0 -1.064825356E-1 4.553563893E-2 -6.995279342E-2
1.383882674E0 -1.202706397E-1 2.513274178E-2 -4.120722413E-2
1.387882674E0 -1.315454692E-1 -8.342674002E-3 -1.382300723E-2
1.391882674E0 -1.475501359E-1 -4.073598608E-2 8.499753661E-3
1.395882674E0 -1.535889804E-1 -5.024803057E-2 1.944296807E-2
1.399882674E0 -1.382824332E-1 -5.314527452E-2 3.087487444E-2
1.403882674E0 -1.285434961E-1 -5.208062381E-2 4.590215907E-2
1.407882674E0 -1.135162115E-1 -4.551818594E-2 5.599016324E-2
1.411882674E0 -1.079311594E-1 -4.272565991E-2 6.298892945E-2
1.415882674E0 -1.001819000E-1 -3.520328924E-2 6.946410239E-2
1.419882674E0 -8.115781099E-2 -2.518510073E-2 7.883652300E-2
1.423882674E0 -7.962191850E-2 -8.517206647E-3 7.663740963E-2
1.427882674E0 -7.187265903E-2 1.640609466E-2 6.447245926E-2
1.431882674E0 -6.009168550E-2 5.677555874E-2 3.766420484E-2
1.435882674E0 -4.239404574E-2 1.036027446E-1 1.394518092E-2
1.439882674E0 -1.068141498E-2 1.398706883E-1 -7.871435024E-3
1.443882674E0 9.145525284E-3 1.647241712E-1 -3.040363453E-2
1.447882674E0 2.462659590E-2 1.796118319E-1 -6.609562039E-2
1.451882674E0 2.801253460E-2 1.850049049E-1 -1.076169983E-1
1.455882674E0 3.340560198E-2 1.886700988E-1 -1.509709805E-1
1.459882674E0 5.583308265E-2 1.927541643E-1 -1.913229972E-1
1.463882674E0 6.387905031E-2 1.741838604E-1 -2.379581928E-1
1.467882674E0 5.871287733E-2 1.223301291E-1 -2.715208828E-1
1.471884237E0 4.824090004E-2 8.382816613E-2 -2.980324328E-1
1.475882674E0 4.497713596E-2 4.918337986E-2 -3.171263337E-1
1.479882674E0 2.851868048E-2 3.176499158E-2 -3.344574571E-1
1.483882674E0 4.502949305E-3 2.359685116E-2 -3.422765136E-1
1.487882674E0 -3.249803185E-2 2.235766686E-2 -3.476172388E-1
1.491882674E0 -4.782202095E-2 3.277728334E-2 -3.511253297E-1
1.495882674E0 -6.401867419E-2 4.448844120E-2 -3.537084162E-1
1.499882674E0 -8.932594955E-2 7.689920813E-2 -3.521201611E-1
1.503882674E0 -9.203121066E-2 1.035678387E-1 -3.516838551E-1
1.507882674E0 -8.803440630E-2 1.185602173E-1 -3.562566042E-1
1.511882674E0 -7.004006207E-2 1.115614474E-1 -3.658559024E-1
1.515882674E0 -3.759439290E-2 1.136558428E-1 -3.831172287E-1
1.519882674E0 1.972222002E-3 1.215796322E-1 -4.016351700E-1
1.523882674E0 5.642649531E-2 1.373399645E-1 -4.239055812E-1
1.527882674E0 8.820894361E-2 1.447750628E-1 -4.443259239E-1
1.531882674E0 1.272694021E-1 1.587726027E-1 -4.714483321E-1
1.535882674E0 1.428377479E-1 1.523148865E-1 -5.042954087E-1
1.539882674E0 1.632580906E-1 1.485100687E-1 -5.352925062E-1
1.543882674E0 1.783028394E-1 1.348092258E-1 -5.551193953E-1
1.547882674E0 1.806764901E-1 9.805259854E-2 -5.664466023E-1
1.551882674E0 1.749867052E-1 4.843288660E-2 -5.718222260E-1
1.555882674E0 1.661204398E-1 1.123992074E-2 -5.655390620E-1
1.559882674E0 1.537111402E-1 -2.823942713E-2 -5.568298697E-1
1.563888924E0 1.387362182E-1 -5.510004610E-2 -5.435653329E-1
1.567882674E0 1.151044667E-1 -5.927138031E-2 -5.303183198E-1
1.571882674E0 8.941321820E-2 -4.513421282E-2 -5.155702829E-1
1.575882674E0 6.597344577E-2 -1.480039209E-2 -5.043478012E-1
1.579882674E0 4.825835302E-2 2.261946723E-2 -4.969126880E-1
1.583882674E0 3.747221828E-2 3.796090931E-2 -4.925493598E-1
1.587882674E0 2.879793197E-2 3.684389964E-2 -4.930729568E-1
1.591882674E0 2.981022373E-2 1.954768784E-2 -5.011887550E-1
1.595882674E0 3.176499158E-2 6.859143730E-3 -5.237558484E-1
1.599882674E0 2.867575921E-2 -6.195918657E-3 -5.566029549E-1
1.603882674E0 5.688028038E-2 7.661995478E-3 -6.008470654E-1
1.607882674E0 9.073966742E-2 2.816961333E-2 -6.533116698E-1
1.611882674E0 1.180017069E-1 5.415756628E-2 -7.021110654E-1
1.615882674E0 1.253495514E-1 7.189010829E-2 -7.456570268E-1
1.619882674E0 1.414240301E-1 1.062905490E-1 -7.842636704E-1
1.623882674E0 1.484751552E-1 1.520356238E-1 -8.273035288E-1
1.627882674E0 1.491558403E-1 1.972396523E-1 -8.663814664E-1
1.631882674E0 1.799085438E-1 2.406110913E-1 -8.958251476E-1
1.635882674E0 2.342406362E-1 2.820452154E-1 -9.250419736E-1
1.639882674E0 2.968281507E-1 3.138974607E-1 -9.483072162E-1
1.643882674E0 3.633601069E-1 3.573037982E-1 -9.748361707E-1
1.647882674E0 4.116533697E-1 3.946538568E-1 -1.009742737E0
1.651882674E0 4.421791732E-1 4.107283354E-1 -1.055138826E0
1.655882674E0 4.680972993E-1 4.179365337E-1 -1.098126292E0
1.659882674E0 4.653396904E-1 4.071678519E-1 -1.150870085E0
1.663882674E0 4.504520297E-1 3.852465153E-1 -1.210263610E0
1.667882674E0 4.252145588E-1 3.369532526E-1 -1.268487811E0
1.671882674E0 4.022111297E-1 2.749417126E-1 -1.319346786E0
1.675882674E0 3.958930373E-1 2.285159528E-1 -1.367831945E0
1.679882674E0 3.909013867E-1 1.855285019E-1 -1.410138726E0
1.683882674E0 3.929783404E-1 1.443910897E-1 -1.456512213E0
1.687882674E0 4.083895981E-1 1.261000335E-1 -1.503252029E0
1.691882674E0 4.234168828E-1 1.318945289E-1 -1.553028822E0
1.695882674E0 4.395088255E-1 1.723687202E-1 -1.624133587E0
1.699882674E0 4.565083086E-1 2.288475633E-1 -1.713860989E0
1.703882674E0 4.932998717E-1 3.063576519E-1 -1.843643665E0
1.707882674E0 5.105786324E-1 3.696083724E-1 -1.992206097E0
1.711882674E0 5.621705651E-1 4.343077242E-1 -2.166913509E0
1.715882674E0 6.126978397E-1 4.718323052E-1 -2.348043680E0
1.719882674E0 6.454402208E-1 4.671722651E-1 -2.534584522E0
1.723882674E0 6.652497053E-1 4.257381558E-1 -2.706167936E0
1.727882674E0 6.681993008E-1 3.772878349E-1 -2.854817629E0
1.731882674E0 6.563135982E-1 3.179815412E-1 -2.985385656E0
1.735882674E0 6.489308476E-1 2.693741024E-1 -3.075008392E0
1.739882674E0 6.536607146E-1 2.279749066E-1 -3.136443853E0
1.743882674E0 6.514616013E-1 1.812175363E-1 -3.174893618E0
1.747882674E0 6.487388611E-1 1.500110477E-1 -3.187773943E0
1.751882674E0 6.396456957E-1 1.409876943E-1 -3.183288574E0
1.755882674E0 6.214593649E-1 1.548805237E-1 -3.163444281E0
1.759882674E0 5.902180076E-1 1.702568680E-1 -3.146217823E0
1.763882674E0 5.590115190E-1 1.816713214E-1 -3.124436140E0
1.767882674E0 5.274210572E-1 1.714262366E-1 -3.113597631E0
1.771882674E0 5.150990486E-1 1.360658705E-1 -3.119950533E0
1.775882674E0 5.112593174E-1 1.054353416E-1 -3.142849207E0
1.779882674E0 5.179787874E-1 7.641051710E-2 -3.176062822E0
1.783882674E0 5.338787436E-1 4.820599407E-2 -3.204913139E0
1.787882674E0 5.360604525E-1 2.846631967E-2 -3.230953455E0
1.791882674E0 5.280842781E-1 4.632103816E-2 -3.242577314E0
1.795882674E0 5.029515028E-1 1.116487086E-1 -3.244392633E0
1.799882674E0 4.673468173E-1 2.066993415E-1 -3.237498522E0
1.803882674E0 4.088259339E-1 3.055897057E-1 -3.221214533E0
1.807882674E0 3.747047484E-1 3.798185587E-1 -3.206588745E0
1.811882674E0 3.562566042E-1 4.330685437E-1 -3.193742990E0
1.815882674E0 3.364820182E-1 4.633325636E-1 -3.192346811E0
1.819882674E0 3.155555129E-1 4.790928662E-1 -3.199502707E0
1.823882674E0 3.033033311E-1 4.532620013E-1 -3.218840837E0
1.827882674E0 3.112620115E-1 3.960850239E-1 -3.255021572E0
1.831882674E0 3.172310293E-1 2.800555229E-1 -3.306770563E0
1.835882674E0 3.222925067E-1 1.387885809E-1 -3.345412254E0
1.839882674E0 3.319965303E-1 1.010545623E-2 -3.382151365E0
1.843882674E0 3.473205268E-1 -8.700466156E-2 -3.412939072E0
1.847882674E0 3.654719293E-1 -1.458397061E-1 -3.418593884E0
1.851882674E0 4.030314386E-1 -1.792627722E-1 -3.396428108E0
1.855882674E0 4.269948006E-1 -2.043606043E-1 -3.352864742E0
1.859882674E0 4.461759627E-1 -2.097013146E-1 -3.280398607E0
1.863882674E0 4.370653629E-1 -2.147103995E-1 -3.175836086E0
1.867882674E0 4.075692892E-1 -2.089333683E-1 -3.073577166E0
1.871882674E0 3.603057563E-1 -1.982519478E-1 -2.963394642E0
1.875882674E0 3.138800263E-1 -1.647939831E-1 -2.862531900E0
1.879882674E0 2.931105793E-1 -9.628981352E-2 -2.770919561E0
1.883882674E0 2.757794857E-1 -1.082104165E-2 -2.689674616E0
1.887882674E0 2.652551532E-1 6.506587565E-2 -2.617609978E0
1.891882674E0 2.564586699E-1 1.136034802E-1 -2.549891233E0
1.895882674E0 2.387261391E-1 1.314232945E-1 -2.503168583E0
1.899882674E0 2.107135952E-1 1.265189201E-1 -2.477442503E0
1.903882674E0 1.886700988E-1 1.122944802E-1 -2.476604700E0
1.907882674E0 1.817236841E-1 1.099557430E-1 -2.495960474E0
1.911882674E0 1.806241274E-1 8.721410483E-2 -2.527201891E0
1.915882674E0 2.002590746E-1 6.490879506E-2 -2.566366911E0
1.919882674E0 2.279050946E-1 1.630137488E-2 -2.611658335E0
1.923882674E0 2.792352140E-1 -3.413863853E-2 -2.662761450E0
1.927882674E0 3.245788813E-1 -7.470009476E-2 -2.705731630E0
1.931882674E0 3.601661325E-1 -8.618436009E-2 -2.745996237E0
1.935882674E0 3.928037882E-1 -8.920377493E-2 -2.784777641E0
1.939882674E0 3.916693330E-1 -6.948155910E-2 -2.828917027E0
1.943882674E0 3.743556738E-1 -4.869468510E-2 -2.858063936E0
1.947882674E0 3.485946059E-1 -2.506292798E-2 -2.857697487E0
1.951882674E0 3.170739710E-1 -5.148721393E-3 -2.828847170E0
1.955882674E0 2.890788913E-1 -2.705260413E-3 -2.779611349E0
1.959882674E0 2.720095515E-1 -7.330382941E-4 -2.713341236E0
1.963888924E0 2.581167519E-1 9.442231618E-3 -2.623823166E0
1.967882674E0 2.367190123E-1 1.326450240E-2 -2.529854774E0
1.971882674E0 2.132443339E-1 3.487167880E-2 -2.425885439E0
1.975882674E0 1.568003744E-1 6.595598906E-2 -2.317622662E0
1.979882674E0 1.174432039E-1 1.046499386E-1 -2.216236591E0
1.983882674E0 8.201301843E-2 1.141794398E-1 -2.132862091E0
1.987882674E0 5.649630725E-2 9.389871359E-2 -2.076505423E0
1.991882674E0 3.797836602E-2 5.143485218E-2 -2.039556742E0
1.995882674E0 1.389282104E-2 -5.078908056E-3 -2.022522449E0
1.999882674E0 -1.843067631E-2 -6.997025013E-2 -2.037497282E0
2.003882674E0 -2.535963431E-2 -1.403419226E-1 -2.071845531E0
2.007882674E0 -4.162610322E-2 -1.912182719E-1 -2.115566015E0
2.011882674E0 -4.733332992E-2 -2.378709167E-1 -2.160089254E0
2.015882674E0 -4.902629927E-2 -2.606125772E-1 -2.204664946E0
2.019882674E0 -4.401720315E-2 -2.576455176E-1 -2.239641428E0
2.023882674E0 -2.780309506E-2 -2.437526882E-1 -2.258089542E0
2.027882674E0 -2.089159191E-2 -2.326349318E-1 -2.263657093E0
2.031882674E0 -6.876597181E-3 -2.180963457E-1 -2.259677887E0
2.035882674E0 1.377064735E-2 -2.043955028E-1 -2.246308565E0
2.039882674E0 2.368411794E-2 -1.946565658E-1 -2.224910736E0
2.043882674E0 3.227113932E-2 -1.657713652E-1 -2.190859556E0
2.047882674E0 4.640830308E-2 -1.234820411E-1 -2.151432514E0
2.051882674E0 3.778637946E-2 -9.239772707E-2 -2.095407486E0
2.055882674E0 3.953170776E-2 -4.597197101E-2 -2.034722328E0
2.059882674E0 3.914773464E-2 3.979350906E-3 -1.969813466E0
2.063882674E0 3.270747140E-2 3.974114731E-2 -1.911781311E0
2.067882674E0 2.453932911E-2 4.724606127E-2 -1.866402745E0
2.071882674E0 2.687806962E-3 3.232349828E-2 -1.831234336E0
2.075882674E0 -2.026327327E-2 2.183406800E-2 -1.803553462E0
2.079882674E0 -4.003785178E-2 1.947787404E-2 -1.783237815E0
2.083882674E0 -3.263765574E-2 1.532399096E-2 -1.777792335E0
2.087882674E0 -3.672172874E-2 -1.148426626E-2 -1.785698652E0
2.091882674E0 -3.645992652E-2 -5.836381018E-2 -1.805228949E0
2.095882674E0 -5.880014226E-2 -1.123468429E-1 -1.822525144E0
2.099882674E0 -7.560766488E-2 -1.361880451E-1 -1.829157352E0
2.103882674E0 -7.251843065E-2 -1.451241225E-1 -1.822298288E0
2.107882674E0 -6.129596382E-2 -1.406909972E-1 -1.805159092E0
2.111882674E0 -3.625048697E-2 -1.258033365E-1 -1.776151776E0
2.115882674E0 -1.296779606E-2 -1.050513685E-1 -1.734281301E0
2.119882674E0 1.439896598E-2 -1.009847522E-1 -1.675044894E0
2.123882674E0 3.953170776E-2 -1.080533341E-1 -1.603573561E0
2.127882674E0 5.042256042E-2 -1.162563786E-1 -1.535872340E0
2.131882674E0 5.775294453E-2 -1.131147891E-1 -1.471993208E0
2.135882674E0 6.702063978E-2 -1.119977757E-1 -1.418010235E0
2.139882674E0 8.531169593E-2 -1.115614474E-1 -1.376820445E0
2.143882674E0 6.944665313E-2 -1.292939931E-1 -1.346381903E0
2.147882674E0 5.173156038E-2 -1.550550461E-1 -1.331354618E0
2.151882674E0 3.014183603E-2 -1.999623775E-1 -1.340377927E0
2.155882674E0 1.754055917E-2 -2.471037209E-1 -1.370589614E0
2.159882674E0 -3.193952609E-3 -2.813645303E-1 -1.408585429E0
2.163882674E0 -3.429571912E-2 -2.898642719E-1 -1.445900559E0
2.167882674E0 -6.728244573E-2 -2.690599561E-1 -1.476094723E0
2.171882674E0 -9.019861370E-2 -2.288475633E-1 -1.496165991E0
2.175882674E0 -1.020319462E-1 -1.949707270E-1 -1.516586423E0
2.179882674E0 -8.555603772E-2 -1.858251989E-1 -1.535627961E0
2.183882674E0 -5.249950290E-2 -2.012190074E-1 -1.547653198E0
2.187882674E0 -2.429498360E-2 -2.305405438E-1 -1.558177590E0
2.191882674E0 -3.996803891E-3 -2.619913816E-1 -1.565734863E0
2.195882674E0 1.843067631E-2 -2.696184516E-1 -1.567864180E0
2.199882674E0 3.619812801E-2 -2.387959510E-1 -1.564338565E0
2.203882674E0 3.827507049E-2 -1.816538721E-1 -1.553953886E0
2.207882674E0 2.857103944E-2 -1.152615398E-1 -1.534388781E0
2.211882674E0 1.007054932E-2 -5.281366408E-2 -1.504735589E0
2.215882674E0 -4.255112633E-2 1.740093343E-2 -1.487945557E0
2.219882674E0 -9.204866737E-2 4.129448906E-2 -1.482831717E0
2.223882674E0 -1.121897623E-1 7.330382941E-4 -1.466635108E0
2.227882674E0 -8.339183033E-2 -4.061381146E-2 -1.438605070E0
2.231882674E0 -3.586651757E-2 -5.569345504E-2 -1.402389526E0
2.235882674E0 2.382374369E-2 -2.792526782E-2 -1.360135078E0
2.239882674E0 7.764969766E-2 -2.228785492E-2 -1.318247199E0
2.243882674E0 1.308124214E-1 -5.893976986E-2 -1.283689618E0
2.247882674E0 1.531177312E-1 -7.234390080E-2 -1.252099156E0
2.251882674E0 1.575508714E-1 -3.591887653E-2 -1.224749923E0
2.255882674E0 1.504648328E-1 1.034980267E-2 -1.204067707E0
2.259882674E0 1.289972812E-1 4.574507847E-2 -1.183786988E0
2.263888924E0 1.154535264E-1 5.726425350E-2 -1.156367898E0
2.267882674E0 1.075297371E-1 5.719443783E-2 -1.127081275E0
2.271882674E0 9.145525098E-2 5.989969894E-2 -1.097777247E0
2.275882674E0 6.307619810E-2 5.761331692E-2 -1.076868176E0
2.279882674E0 5.242969096E-2 5.141739920E-2 -1.061648846E0
2.283882674E0 5.499532446E-2 2.487094142E-2 -1.054213762E0
2.287882674E0 5.277875811E-2 -2.436479554E-2 -1.061282396E0
2.291882674E0 5.733406544E-2 -1.107760444E-1 -1.089626551E0
2.295882674E0 5.986479297E-2 -1.913404465E-1 -1.118721128E0
2.299882674E0 7.450810820E-2 -2.311863154E-1 -1.152789950E0
2.303882674E0 8.859290928E-2 -2.453060299E-1 -1.192077279E0
2.307882674E0 8.822639287E-2 -2.486570626E-1 -1.220875263E0
2.311882674E0 8.309512585E-2 -2.485174239E-1 -1.226128697E0
2.315882674E0 8.044222742E-2 -2.278352827E-1 -1.206109762E0
2.319882674E0 9.101892263E-2 -1.999972761E-1 -1.182652593E0
2.323882674E0 1.261174977E-1 -1.763480604E-1 -1.156228304E0
2.327882674E0 1.569923609E-1 -1.564862132E-1 -1.122107029E0
2.331882674E0 1.930508614E-1 -1.255764365E-1 -1.072557211E0
2.335882674E0 2.110626698E-1 -7.972663641E-2 -1.021401525E0
2.339882674E0 1.982344985E-1 -3.975860029E-2 -9.621301889E-1
2.343882674E0 1.667836607E-1 7.836528122E-3 -9.191252589E-1
2.347882674E0 1.359611452E-1 3.651228920E-2 -8.907462358E-1
2.351882674E0 1.047721133E-1 4.656538367E-2 -8.777784109E-1
2.355882674E0 7.344345748E-2 2.117084339E-2 -8.804138899E-1
2.359882674E0 4.974188283E-2 -1.673770696E-2 -9.006771445E-1
2.363888924E0 2.823942713E-2 -6.518805027E-2 -9.205913544E-1
2.367882674E0 7.278022822E-3 -1.077740788E-1 -9.275901318E-1
2.371882674E0 6.021386012E-3 -1.217890754E-1 -9.170832634E-1
2.375882674E0 7.155850180E-4 -1.112647429E-1 -8.946034312E-1
2.379882674E0 8.325220086E-3 -9.946631640E-2 -8.655611277E-1
2.383882674E0 4.424409568E-2 -8.059930801E-2 -8.313526511E-1
2.387882674E0 9.046041220E-2 -4.377285764E-2 -7.974234819E-1
2.391882674E0 1.312836707E-1 4.956734832E-3 -7.676656246E-1
2.395882674E0 1.702394187E-1 5.562364310E-2 -7.442258596E-1
2.399882674E0 1.964891702E-1 8.962265402E-2 -7.298443317E-1
2.403882674E0 2.053379864E-1 9.730210900E-2 -7.263885736E-1
2.407882674E0 1.899790913E-1 8.813912421E-2 -7.468438148E-1
2.411882674E0 1.647765338E-1 5.986479297E-2 -7.783994079E-1
2.415882674E0 1.387362182E-1 2.778564207E-2 -8.038113713E-1
2.419882674E0 1.173908487E-1 -8.115780540E-3 -8.229227662E-1
2.423882674E0 1.033583954E-1 -2.637192421E-2 -8.348258734E-1
2.427882674E0 9.595820308E-2 -2.754129469E-2 -8.347735405E-1
2.431882674E0 8.511970937E-2 -7.522369269E-3 -8.200255036E-1
2.435882674E0 6.534512341E-2 2.047271281E-2 -7.887666225E-1
2.439882674E0 4.399975017E-2 3.797836602E-2 -7.428470254E-1
2.443882674E0 5.260422453E-2 5.293583497E-2 -6.877818704E-1
2.447882674E0 7.955210656E-2 5.911429971E-2 -6.464874148E-1
2.451882674E0 1.009149402E-1 6.159266829E-2 -6.101322174E-1
2.455882674E0 1.248084977E-1 6.632251292E-2 -5.812295675E-1
2.459882674E0 1.467123777E-1 5.944591388E-2 -5.673716068E-1
2.463882674E0 1.423665136E-1 3.792600334E-2 -5.688726306E-1
2.467882674E0 1.354899108E-1 6.859143730E-3 -5.921378732E-1
2.471882674E0 1.228362694E-1 -3.792600334E-2 -6.212499738E-1
2.475882674E0 1.214749143E-1 -7.976154983E-2 -6.518805027E-1
2.479882674E0 1.162040234E-1 -1.186474785E-1 -6.735749245E-1
2.483882674E0 1.048419252E-1 -1.288402081E-1 -6.915692687E-1
2.487882674E0 1.175653785E-1 -1.204451695E-1 -7.054446340E-1
2.491882674E0 1.300444752E-1 -1.278977245E-1 -7.161434889E-1
2.495882674E0 1.312662065E-1 -1.349837631E-1 -7.195119858E-1
2.499882674E0 1.394692659E-1 -1.321388781E-1 -7.259696722E-1
2.503882674E0 1.287180334E-1 -1.288402081E-1 -7.291636467E-1
2.507882674E0 1.400277615E-1 -1.248259470E-1 -7.286574841E-1
2.511882674E0 1.233249679E-1 -1.151917279E-1 -7.223393917E-1
2.515882674E0 1.086991057E-1 -9.930923581E-2 -7.087956667E-1
2.519882674E0 1.010894701E-1 -6.145304441E-2 -6.917263269E-1
2.523882674E0 8.648106456E-2 -2.293362655E-2 -6.585301757E-1
2.527882674E0 7.031931728E-2 1.761037298E-2 -6.173578501E-1
2.531882674E0 5.920156837E-2 5.171410739E-2 -5.770931244E-1
2.535882674E0 4.426154867E-2 6.270968169E-2 -5.449267030E-1
2.539882674E0 5.220279843E-2 7.983136177E-2 -5.261469483E-1
2.543882674E0 5.178391933E-2 8.313003182E-2 -5.182406306E-1
2.547882674E0 4.951499030E-2 7.405432314E-2 -5.121145248E-1
2.551882674E0 5.452408642E-2 7.211700082E-2 -5.153259039E-1
2.555882674E0 6.941174716E-2 6.442010403E-2 -5.294281840E-1
2.559882674E0 6.253514439E-2 4.461061582E-2 -5.523443222E-1
2.563882674E0 5.281366408E-2 2.247984149E-2 -5.872509480E-1
2.567882674E0 3.490658477E-2 -3.944444004E-3 -6.240424514E-1
2.571882674E0 3.080506064E-2 -3.729768470E-2 -6.611830592E-1
2.575882674E0 3.986331820E-2 -6.092944369E-2 -6.946585178E-1
2.579882674E0 4.928809777E-2 -6.995279342E-2 -7.250621319E-1
2.583882674E0 6.513568759E-2 -6.403613091E-2 -7.496887445E-1
2.587882674E0 6.555456668E-2 -6.274458766E-2 -7.701265216E-1
2.591882674E0 5.342452973E-2 -7.145377994E-2 -7.820820212E-1
2.595882674E0 4.169591516E-2 -7.492698729E-2 -7.818900347E-1
2.599882674E0 2.750638872E-2 -6.654940546E-2 -7.679972053E-1
2.603882674E0 1.293289009E-2 -5.349434167E-2 -7.357784510E-1
2.607882674E0 1.698205434E-2 -2.645919099E-2 -6.922848225E-1
2.611882674E0 1.528908405E-2 6.597344764E-3 -6.412165165E-1
2.615882674E0 2.289872058E-2 4.686209187E-2 -5.813691616E-1
2.619882674E0 3.176499158E-2 9.587093443E-2 -5.288696885E-1
2.623882674E0 3.616322204E-2 1.369908899E-1 -4.984660447E-1
2.627882674E0 4.214970022E-2 1.391725540E-1 -4.831594825E-1
2.631882674E0 5.021312088E-2 1.211782098E-1 -4.845906794E-1
2.635882674E0 6.370452046E-2 9.328784794E-2 -5.024279356E-1
2.639882674E0 5.873033032E-2 6.103416532E-2 -5.251520872E-1
2.643882674E0 5.644394830E-2 3.499384969E-2 -5.447870493E-1
2.647882674E0 5.618214980E-2 2.368411794E-2 -5.589591265E-1
2.651882674E0 5.700245500E-2 1.939060725E-2 -5.603728890E-1
2.655882674E0 4.459316283E-2 1.244419720E-2 -5.623974204E-1
2.659882674E0 3.366740048E-2 -8.045967668E-3 -5.624846816E-1
2.663888924E0 1.696459949E-2 -2.485348843E-2 -5.554335713E-1
2.667882674E0 -4.956734832E-3 -3.539527580E-2 -5.442634821E-1
2.671882674E0 -1.675515994E-2 -3.888593614E-2 -5.234242678E-1
2.675882674E0 -2.579596639E-2 -3.364994749E-2 -5.095489025E-1
2.679882674E0 -4.188790172E-2 -1.511455141E-2 -4.936140180E-1
2.683882674E0 -5.330235511E-2 -6.283185212E-4 -4.766494036E-1
2.687882674E0 -6.935938448E-2 3.298672382E-3 -4.619886577E-1
2.691882674E0 -8.951793611E-2 -3.665191354E-3 -4.479213059E-1
2.695882674E0 -8.696975559E-2 -7.574729156E-3 -4.340284765E-1
2.699882674E0 -8.609709144E-2 -2.110103145E-2 -4.270820618E-1
2.703882674E0 -7.990117371E-2 -3.066543490E-2 -4.281292558E-1
2.707882674E0 -6.983062625E-2 -3.748967126E-2 -4.333827198E-1
2.711882674E0 -5.546656251E-2 -3.419100121E-2 -4.401720464E-1
2.715882674E0 -3.426081315E-2 -3.796090931E-2 -4.455476403E-1
2.719882674E0 -3.652974218E-2 -4.497713596E-2 -4.588470459E-1
2.723882674E0 -3.984586522E-2 -5.583308265E-2 -4.818679392E-1
2.727885799E0 -5.096361414E-2 -7.251843065E-2 -5.059534907E-1
2.731882674E0 -5.372123420E-2 -8.742354065E-2 -5.212774873E-1
2.735882674E0 -5.244714394E-2 -9.323548526E-2 -5.291838050E-1
2.739882674E0 -6.810274720E-2 -9.704030305E-2 -5.303357244E-1
2.743882674E0 -8.299040794E-2 -8.838347346E-2 -5.202477574E-1
2.747882674E0 -1.011941880E-1 -9.377653897E-2 -5.093394518E-1
2.751882674E0 -1.259429604E-1 -8.936085552E-2 -4.903851449E-1
2.755882674E0 -1.472010612E-1 -7.630579174E-2 -4.682892859E-1
2.759882674E0 -1.412844062E-1 -6.489133835E-2 -4.384441674E-1
2.763888924E0 -1.347568780E-1 -6.389650702E-2 -4.088259339E-1
2.767882674E0 -1.097113937E-1 -4.815363511E-2 -3.789807856E-1
2.771882674E0 -9.101892263E-2 -3.090978041E-2 -3.534291685E-1
2.775882674E0 -6.805038452E-2 -2.178170905E-2 -3.229906261E-1
2.779882674E0 -5.696754530E-2 -1.780235791E-3 -2.948733866E-1
2.783882674E0 -5.433209985E-2 1.698205434E-2 -2.670702934E-1
2.787882674E0 -4.991641641E-2 3.768165782E-2 -2.459692508E-1
2.791882674E0 -4.878195375E-2 3.708824515E-2 -2.290395498E-1
2.795882674E0 -5.419247225E-2 1.462585945E-2 -2.158797681E-1
2.799882674E0 -4.792674258E-2 7.679448463E-4 -2.105041593E-1
2.803882674E0 -5.169665068E-2 -2.672099136E-2 -2.182534188E-1
2.807882674E0 -5.419247225E-2 -6.538003683E-2 -2.418153733E-1
2.811882674E0 -5.846852809E-2 -1.055749655E-1 -2.747671902E-1
2.815882674E0 -6.829473376E-2 -1.254193634E-1 -3.035302162E-1
2.819882674E0 -8.785987645E-2 -1.288925707E-1 -3.304606378E-1
2.823882674E0 -1.145110503E-1 -1.356818974E-1 -3.456101120E-1
2.827882674E0 -1.289972812E-1 -1.478293836E-1 -3.536211550E-1
2.831882674E0 -1.371130645E-1 -1.526464969E-1 -3.543542027E-1
2.835882674E0 -1.496445239E-1 -1.605179310E-1 -3.546858132E-1
2.839882674E0 -1.528733820E-1 -1.701172441E-1 -3.577924967E-1
2.843882674E0 -1.599245220E-1 -1.858601123E-1 -3.507762849E-1
2.847882674E0 -1.622108966E-1 -1.812698990E-1 -3.382622600E-1
2.851882674E0 -1.665567756E-1 -1.498190612E-1 -3.210009634E-1
2.855882674E0 -1.667662114E-1 -1.082976833E-1 -2.979626060E-1
2.859882674E0 -1.605528444E-1 -8.211774379E-2 -2.749591768E-1
2.863882674E0 -1.489987522E-1 -5.757841095E-2 -2.535963356E-1
2.867882674E0 -1.289100200E-1 -2.539454028E-2 -2.302787453E-1
2.871882674E0 -1.065523475E-1 7.801621687E-3 -2.124414742E-1
2.875882674E0 -9.438740462E-2 2.478367463E-2 -2.011666447E-1
2.879882674E0 -7.979645580E-2 2.705260366E-2 -1.922131032E-1
2.883882674E0 -6.511823088E-2 2.211332135E-2 -1.916720569E-1
2.887882674E0 -6.237806752E-2 4.101523664E-3 -1.954594254E-1
2.891882674E0 -6.236061454E-2 -1.487020496E-2 -2.063677311E-1
2.895882674E0 -7.054620981E-2 -3.988077492E-2 -2.184105068E-1
2.899882674E0 -8.587019891E-2 -6.187192351E-2 -2.233672440E-1
2.903882674E0 -1.019621342E-1 -8.285077661E-2 -2.193878889E-1
2.907882674E0 -1.220857799E-1 -8.724901080E-2 -2.052681744E-1
2.911882674E0 -1.439023912E-1 -7.485716790E-2 -1.827534288E-1
2.915882674E0 -1.652477682E-1 -6.448991597E-2 -1.663298756E-1
2.919882674E0 -1.651430577E-1 -8.258897811E-2 -1.585806161E-1
2.923882674E0 -1.542172879E-1 -1.005833223E-1 -1.537111402E-1
2.927882674E0 -1.343554407E-1 -1.001644433E-1 -1.513898522E-1
2.931882674E0 -1.203229949E-1 -9.220574051E-2 -1.540951133E-1
2.935882674E0 -1.038470864E-1 -7.703883201E-2 -1.564513147E-1
2.939882674E0 -9.278170019E-2 -6.347762793E-2 -1.584235430E-1
2.943882674E0 -7.651523501E-2 -3.867649660E-2 -1.611986160E-1
2.947882674E0 -6.953391433E-2 -1.265363675E-2 -1.611811519E-1
2.951882674E0 -6.909758598E-2 1.307251584E-2 -1.583013684E-1
2.955882674E0 -5.962044746E-2 3.501130641E-2 -1.557531804E-1
2.959882674E0 -5.611233413E-2 4.164355621E-2 -1.547757983E-1
2.963882674E0 -5.070181563E-2 4.380776361E-2 -1.525766850E-1
2.967882674E0 -4.218460619E-2 4.286528751E-2 -1.503426582E-1
2.971882674E0 -3.471459821E-2 4.878195375E-2 -1.497492492E-1
2.975882674E0 -1.712168008E-2 4.869468510E-2 -1.538158655E-1
2.979882674E0 9.145525284E-3 3.422590718E-2 -1.584933549E-1
2.983882674E0 3.061307408E-2 1.251401100E-2 -1.648288965E-1
2.987882674E0 3.785619140E-2 -1.612684131E-2 -1.786693484E-1
2.991884237E0 3.117158078E-2 -4.712389037E-2 -1.902757883E-1
2.995882674E0 2.836159989E-2 -6.335545331E-2 -2.027723491E-1
2.999882674E0 1.274090353E-2 -7.312929630E-2 -2.143089771E-1
3.003882674E0 2.914699726E-3 -7.283259183E-2 -2.177821845E-1
3.007882674E0 -6.632251316E-4 -6.251769513E-2 -2.180788964E-1
3.011882674E0 -7.470009383E-3 -6.339035928E-2 -2.209935933E-1
3.015882674E0 -6.108652335E-3 -6.832963973E-2 -2.261423171E-1
3.019882674E0 -2.548180753E-3 -7.531096041E-2 -2.318320870E-1
3.023882674E0 -9.634217247E-3 -7.024950534E-2 -2.349911332E-1
3.027882674E0 -2.443460980E-3 -5.024803057E-2 -2.412219495E-1
3.031882674E0 8.150687441E-3 -3.207915276E-2 -2.428625673E-1
3.035882674E0 1.151917316E-2 -1.694714651E-2 -2.446253449E-1
3.039882674E0 1.450368576E-2 -5.323254038E-3 -2.452536672E-1
3.043882674E0 1.904154196E-2 2.652900526E-3 -2.407332659E-1
3.047882674E0 2.206096239E-2 9.250245057E-3 -2.370157093E-1
3.051882674E0 1.726130582E-2 1.624901593E-2 -2.343628109E-1
3.055885799E0 1.432915311E-2 4.991641734E-3 -2.405936420E-1
3.059885799E0 1.267109066E-2 -2.216568217E-2 -2.571218908E-1
3.063888924E0 2.218313515E-2 -5.410520732E-2 -2.769663036E-1
3.067882674E0 2.570869960E-2 -7.194247097E-2 -2.910161912E-1
3.071882674E0 2.722713538E-2 -8.470083028E-2 -3.029367924E-1
3.075882674E0 3.576179594E-2 -8.955284208E-2 -3.138974607E-1
3.079884237E0 3.860668465E-2 -8.070402592E-2 -3.168994188E-1
3.083885799E0 3.855432197E-2 -7.073819637E-2 -3.095515966E-1
3.087882674E0 4.565781355E-2 -6.194173545E-2 -3.011565506E-1
3.091882674E0 5.229006335E-2 -5.801474303E-2 -2.905449569E-1
3.095882674E0 5.632177368E-2 -5.335471407E-2 -2.775422633E-1
3.099882674E0 5.778785050E-2 -4.974188283E-2 -2.594082952E-1
3.103882674E0 5.366887525E-2 -4.279547185E-2 -2.361605018E-1
3.107882674E0 5.604252219E-2 -2.186897583E-2 -2.096140385E-1
3.111882674E0 5.700245500E-2 -1.186823938E-3 -1.801179796E-1
3.115882674E0 5.764822662E-2 1.307251584E-2 -1.483355314E-1
3.119882674E0 6.386159360E-2 2.611012571E-2 -1.237962022E-1
3.123882674E0 8.726646006E-2 3.448770568E-2 -1.065523475E-1
3.127882674E0 1.172163114E-1 3.457497060E-2 -1.005484164E-1
3.131882674E0 1.379682720E-1 2.270673402E-2 -1.074075624E-1
3.135882674E0 1.590169519E-1 4.084070213E-3 -1.226093769E-1
3.139882674E0 1.789660603E-1 -9.634217247E-3 -1.405688226E-1
3.143882674E0 2.016204298E-1 -2.869321220E-2 -1.578999311E-1
3.147882674E0 2.192657143E-1 -4.843288660E-2 -1.743060350E-1
3.151882674E0 2.378709167E-1 -6.321582198E-2 -1.930334121E-1
3.155882674E0 2.496518940E-1 -6.798057258E-2 -2.084621191E-1
3.159882674E0 2.589021325E-1 -6.351253390E-2 -2.188119292E-1
3.163882674E0 2.647489905E-1 -5.464625731E-2 -2.227214724E-1
3.167882674E0 2.697580755E-1 -4.045673087E-2 -2.165080905E-1
3.171882674E0 2.733185589E-1 -2.035053819E-2 -2.012015581E-1
3.175882674E0 2.731963992E-1 2.949606394E-3 -1.810779124E-1
3.179882674E0 2.787116170E-1 2.227040194E-2 -1.586853415E-1
3.183882674E0 2.900911868E-1 3.124139272E-2 -1.269552559E-1
3.187882674E0 3.033033311E-1 2.801253460E-2 -9.714502841E-2
3.191882674E0 3.226939142E-1 2.352703735E-2 -6.379178166E-2
3.195882674E0 3.382971585E-1 2.371902391E-2 -3.431317210E-2
3.199882674E0 3.510904312E-1 2.017600648E-2 -1.066396199E-2
3.203882674E0 3.613529801E-1 7.801621687E-3 4.206243437E-3
3.207882674E0 3.751585186E-1 -1.727875904E-3 1.396263391E-2
3.211882674E0 3.846531212E-1 -1.581268385E-2 2.221804112E-2
3.215882674E0 3.884753883E-1 -2.761110850E-2 2.933898382E-2
3.219882674E0 3.789458871E-1 -3.131120652E-2 4.127703607E-2
3.223882674E0 3.651577830E-1 -2.757620253E-2 5.223770440E-2
3.227882674E0 3.516140282E-1 -2.736676298E-2 6.276203692E-2
3.231882674E0 3.413165808E-1 -3.347541392E-2 7.091272622E-2
3.235882674E0 3.342654705E-1 -4.604178667E-2 7.442083955E-2
3.239882674E0 3.267081678E-1 -7.581710070E-2 7.215191424E-2
3.243882674E0 3.175103068E-1 -1.255764365E-1 6.630505621E-2
3.247882674E0 3.099879324E-1 -1.774127185E-1 5.708971992E-2
3.251882674E0 3.053278923E-1 -2.262993902E-1 4.386012256E-2
3.255882674E0 3.071255982E-1 -2.578898370E-1 3.122393973E-2
3.259882674E0 3.142116368E-1 -2.712241709E-1 2.129301615E-2
3.263882674E0 3.147177696E-1 -2.837207317E-1 1.373574138E-2
3.267882674E0 3.055198789E-1 -2.976658940E-1 8.307767101E-3
3.271882674E0 2.856580317E-1 -3.082425892E-1 7.801621687E-3
3.275882674E0 2.645221055E-1 -3.092025220E-1 9.320057929E-3
3.279882674E0 2.353751063E-1 -3.001093566E-1 8.517206647E-3
3.283882674E0 2.042907923E-1 -2.919935882E-1 8.604473434E-3
3.287882674E0 1.743583977E-1 -2.981545925E-1 9.093165398E-3
3.291882674E0 1.483355314E-1 -3.071604967E-1 9.808750823E-3
3.295882674E0 1.248259470E-1 -3.125186563E-1 1.511455141E-2
3.299882674E0 1.047197580E-1 -3.185749352E-1 2.101376466E-2
3.303882674E0 8.426449448E-2 -3.287327588E-1 3.068288788E-2
3.307882674E0 7.365289330E-2 -3.294483423E-1 2.809980139E-2
3.311882674E0 7.419394702E-2 -3.061656654E-1 2.228785492E-2
3.315882674E0 8.457865566E-2 -2.642428577E-1 2.483603545E-2
3.319882674E0 1.052084491E-1 -2.177821845E-1 3.153809905E-2
3.323882674E0 1.233773232E-1 -1.671327353E-1 3.433062509E-2
3.327882674E0 1.308473349E-1 -1.203404516E-1 3.656464815E-2
3.331882674E0 1.270599663E-1 -8.045967668E-2 3.850196302E-2
3.335882674E0 1.188394651E-1 -5.347688869E-2 3.630284965E-2
3.339882674E0 1.124864668E-1 -4.358087108E-2 2.956587821E-2
3.343882674E0 1.078089848E-1 -4.417428374E-2 2.071705833E-2
3.347882674E0 1.061509252E-1 -4.975933582E-2 1.298524998E-2
3.351882674E0 1.048070192E-1 -4.131194204E-2 4.660028964E-3
3.355882674E0 1.011592820E-1 -7.801621687E-3 -1.659808122E-2
3.359882674E0 9.072221071E-2 5.768313259E-2 -2.794272080E-2
3.363882674E0 7.173303515E-2 1.273392290E-1 -7.051130291E-3
3.367882674E0 5.850343779E-2 1.395390779E-1 -3.228859045E-3
3.371882674E0 5.443681777E-2 7.981390506E-2 -1.160643995E-2
3.375882674E0 5.536184460E-2 -1.441641990E-2 -9.581857361E-3
3.379882674E0 5.304055661E-2 -9.426523000E-2 -6.318091881E-3
3.383882674E0 4.370304570E-2 -1.393470913E-1 -4.886921961E-3
3.387882674E0 2.801253460E-2 -1.411622316E-1 -3.909537569E-3
3.391882674E0 1.188569237E-2 -1.011243761E-1 -1.239183708E-3
3.395882674E0 -5.550147034E-3 -4.850269854E-2 -4.014257283E-4
3.399882674E0 -1.973967440E-2 -1.982693933E-2 -1.745329209E-4
3.403882674E0 -3.127630055E-2 -4.096287861E-2 -1.221730490E-4
3.407882674E0 -3.532546386E-2 -9.194394201E-2 -1.047197584E-4
3.411882674E0 -3.893829510E-2 -1.346347034E-1 -1.605702913E-3
3.415882674E0 -4.199262336E-2 -1.566258520E-1 -1.989675453E-3
3.419882674E0 -4.368559271E-2 -1.561720669E-1 -1.797689125E-3
3.423882674E0 -4.684463516E-2 -1.441641897E-1 -1.291543595E-3
3.427882674E0 -5.218534544E-2 -1.262571216E-1 -4.014257283E-4
3.431882674E0 -5.717698485E-2 -1.071457639E-1 5.585053586E-4
3.435882674E0 -6.105161831E-2 -8.920377493E-2 1.256637042E-3
3.439882674E0 -6.386159360E-2 -7.534586638E-2 1.745329238E-3
3.443882674E0 -6.550220400E-2 -6.510078162E-2 2.775073517E-3
3.447882674E0 -6.503096968E-2 -5.822418258E-2 4.101523664E-3
3.451882674E0 -6.443755329E-2 -4.801400751E-2 6.562437862E-3
3.455882674E0 -6.625270098E-2 -3.255039081E-2 6.440265104E-3
3.459882674E0 -6.897541136E-2 -5.951572675E-3 7.312929723E-3
3.463888924E0 -7.330382615E-2 2.281145379E-2 7.539822254E-3
3.467882674E0 -7.848745584E-2 4.071853310E-2 6.702064537E-3
3.471882674E0 -7.941248268E-2 4.283038154E-2 5.724680144E-3
3.475882674E0 -7.077310234E-2 2.471386269E-2 4.869468510E-3
3.479882674E0 -5.211552978E-2 -8.901178837E-3 7.330382941E-4
3.483882674E0 -2.134537697E-2 -5.515240505E-2 -1.082104165E-3
3.487882674E0 1.075122785E-2 -8.651597053E-2 -6.632251316E-4
3.491882674E0 2.998475730E-2 -8.913396299E-2 -1.134464052E-3
3.495882674E0 3.228859231E-2 -7.293730974E-2 -2.775073517E-3
3.499882674E0 2.188642882E-2 -5.215043947E-2 -1.099557383E-3
3.503882674E0 2.460914198E-3 -3.527310491E-2 3.839724232E-4
3.507882674E0 -1.614429615E-2 -2.410299703E-2 6.108652451E-4
3.511882674E0 -2.792526782E-2 -1.953023486E-2 6.981316983E-5
3.515882674E0 -2.769837528E-2 -2.090904489E-2 -5.235987919E-5
3.519882674E0 -1.918116771E-2 -1.480039209E-2 -8.726646047E-5
3.523882674E0 -8.395033889E-3 -1.012290944E-3 6.457717973E-4
3.527882674E0 -1.954768784E-3 1.881464943E-2 1.745329238E-3
3.531882674E0 -2.234021435E-3 3.755948693E-2 2.635447076E-3
3.535882674E0 -1.027998887E-2 5.689773336E-2 2.408554312E-3
3.539882674E0 -1.766273193E-2 7.171557844E-2 2.949606394E-3
3.543882674E0 -2.501056902E-2 7.965682447E-2 3.543018363E-3
3.547882674E0 -2.961823717E-2 7.464773208E-2 3.543018363E-3
3.551882674E0 -3.670427576E-2 6.670648605E-2 3.857177682E-3
3.555882674E0 -3.946189582E-2 6.703809649E-2 4.677482415E-3
3.559882674E0 -3.565707803E-2 7.887142897E-2 4.293509759E-3
3.563882674E0 -2.188642882E-2 9.325294197E-2 5.846852902E-3
3.567882674E0 -4.276056774E-3 1.003215238E-1 8.813912980E-3
3.571882674E0 1.113520097E-2 9.389871359E-2 1.110029407E-2
3.575882674E0 1.457349956E-2 7.009242475E-2 1.183333248E-2
3.579882674E0 1.003564335E-2 3.286454827E-2 1.022762898E-2
3.583882674E0 3.124139272E-3 2.216568217E-3 7.557275705E-3
3.587882674E0 -1.518436475E-3 -1.314232964E-2 5.201081280E-3
3.591882674E0 -1.535889693E-3 -1.473057922E-2 3.228859045E-3
3.595882674E0 2.356194425E-3 -6.126105785E-3 4.520402756E-3
3.599882674E0 7.906341925E-3 3.054326167E-3 5.602506921E-3
3.603882674E0 1.101302728E-2 3.351032268E-3 6.038838997E-3
3.607882674E0 1.406735368E-2 -3.351032268E-3 5.567600485E-3
3.611882674E0 8.848818950E-3 -1.343903481E-3 4.817108624E-3
3.615882674E0 -1.570796303E-4 9.407324716E-3 4.782202188E-3
3.619882674E0 -1.291543618E-2 2.171189524E-2 3.717551241E-3
3.623882674E0 -2.211332135E-2 2.401573025E-2 3.595378250E-3
3.627882674E0 -2.691297606E-2 1.799434423E-2 3.717551241E-3
3.631882674E0 -2.846631967E-2 1.099557430E-2 4.049163777E-3
3.635882674E0 -2.768092230E-2 1.343903481E-3 6.527531426E-3
3.639882674E0 -2.804744057E-2 -7.941247895E-3 8.552113548E-3
3.643882674E0 -3.087487444E-2 -6.754423957E-3 1.026253588E-2
3.647882674E0 -3.537782282E-2 6.771877408E-3 1.223475765E-2
3.651882674E0 -3.820525855E-2 2.823942713E-2 1.453859266E-2
3.655882674E0 -4.180063680E-2 4.544837400E-2 1.453859266E-2
3.659882674E0 -4.860742018E-2 4.661774263E-2 1.528908405E-2
3.663882674E0 -5.895722285E-2 3.757693991E-2 1.459095255E-2
3.667882674E0 -6.723008305E-2 2.483603545E-2 1.335176919E-2
3.671882674E0 -7.466518879E-2 1.202531811E-2 1.317723561E-2
3.675882674E0 -7.824310660E-2 -3.490658477E-3 1.328195538E-2
3.679882674E0 -8.129743487E-2 -1.867502369E-2 1.211258490E-2
3.683882674E0 -8.374089748E-2 -3.017674200E-2 1.104793418E-2
3.687882674E0 -8.995427191E-2 -3.663446009E-2 1.258382387E-2
3.691882674E0 -9.712757170E-2 -4.117231816E-2 1.328195538E-2
3.695882674E0 -1.023286507E-1 -4.883431271E-2 1.331686229E-2
3.699882674E0 -1.083500385E-1 -5.204571784E-2 1.286307629E-2
3.703882674E0 -1.105317026E-1 -4.729842395E-2 1.246165112E-2
3.707882674E0 -1.082278639E-1 -3.867649660E-2 1.068141498E-2
3.711882674E0 -1.035678387E-1 -2.921681106E-2 1.188569237E-2
3.715882674E0 -9.932668507E-2 -1.485275198E-2 1.340412907E-2
3.719882674E0 -9.686577320E-2 -1.048942842E-2 1.589994878E-2
3.723882674E0 -9.337511659E-2 -1.103048120E-2 1.806415804E-2
3.727882674E0 -8.960520476E-2 -8.011061698E-3 2.103121765E-2
3.731882674E0 -8.395033330E-2 -2.687806962E-3 2.106612362E-2
3.735882674E0 -7.585200667E-2 3.630284918E-3 2.270673402E-2
3.739882674E0 -6.651449949E-2 6.056292448E-3 2.254965343E-2
3.743882674E0 -5.611233413E-2 5.777040031E-3 2.206096239E-2
3.747882674E0 -4.345869645E-2 1.780235791E-3 2.087413706E-2
3.751882674E0 -3.293436393E-2 4.363323096E-4 1.919862255E-2
3.755882674E0 -2.522000670E-2 1.291543595E-3 1.816887781E-2
3.759882674E0 -2.230530791E-2 3.333578818E-3 1.609193534E-2
3.763882674E0 -2.649409883E-2 7.923794910E-3 1.555088349E-2
3.767882674E0 -3.378957510E-2 1.047197543E-2 1.329940930E-2
3.771882674E0 -3.794345632E-2 7.836528122E-3 1.181587856E-2
3.775882674E0 -3.872885555E-2 4.729842301E-3 1.021017600E-2
3.779882674E0 -3.846705705E-2 4.817108624E-3 8.744099177E-3
3.783882674E0 -4.201007634E-2 7.260569837E-3 7.470009383E-3
3.787882674E0 -4.956734926E-2 1.375319436E-2 5.480333697E-3
3.791882674E0 -6.056292355E-2 2.298598550E-2 5.410520826E-3
3.795882674E0 -6.780604273E-2 2.766346931E-2 5.096361507E-3
3.799882674E0 -7.600908726E-2 1.713913307E-2 4.694935866E-3
3.803882674E0 -8.040732145E-2 -1.989675453E-3 4.450589418E-3
3.807882674E0 -8.171631396E-2 -1.919862255E-2 2.583087189E-3
3.811882674E0 -7.888887823E-2 -2.624975145E-2 2.251474652E-3
3.815882674E0 -7.497934252E-2 -2.026327327E-2 1.710422686E-3
3.819882674E0 -7.276277989E-2 -9.215338156E-3 1.710422686E-3
3.823882674E0 -7.339109480E-2 2.844886621E-3 2.775073517E-3
3.827882674E0 -7.354817539E-2 9.756390937E-3 3.804817796E-3
3.831882674E0 -6.953391433E-2 1.216494478E-2 4.520402756E-3
3.835882674E0 -6.096434966E-2 1.638864167E-2 4.398229532E-3
3.839882674E0 -5.059709400E-2 2.172934823E-2 4.223696887E-3
3.843882674E0 -3.750712425E-2 2.220058814E-2 1.326450263E-3
3.847882674E0 -2.356194519E-2 1.841322333E-2 -1.745329246E-5
3.851882674E0 -1.012290921E-2 1.607448235E-2 -1.727875904E-3
3.855882674E0 -6.108652451E-4 2.237512171E-2 -1.884955564E-3
3.859882674E0 6.981316954E-3 3.801327199E-2 -2.827433404E-3
3.863888924E0 1.331686229E-2 5.279621109E-2 -3.211405827E-3
3.867884237E0 1.572541706E-2 6.192428246E-2 -5.131267942E-3
3.871882674E0 1.635373570E-2 6.429792941E-2 -6.230825558E-3
3.875882674E0 1.577777602E-2 6.461209059E-2 -6.213372108E-3
3.879882674E0 1.096066739E-2 6.620033830E-2 -7.557275705E-3
3.883882674E0 4.729842301E-3 6.841690838E-2 -8.220500313E-3
3.887882674E0 -1.553343027E-3 7.019714266E-2 -9.145525284E-3
3.891882674E0 -3.944444004E-3 6.857398897E-2 -7.731808349E-3
3.895882674E0 -3.961897455E-3 6.166248396E-2 -8.255407214E-3
3.899882674E0 -2.164208330E-3 5.173156038E-2 -7.941247895E-3
3.903882674E0 -8.028514567E-4 4.251622036E-2 -7.714355364E-3
3.907882674E0 1.745329246E-5 3.529055789E-2 -6.754423957E-3
3.911882674E0 -4.276056774E-3 3.010693006E-2 -6.056292448E-3
3.915882674E0 -1.336922217E-2 2.619739249E-2 -5.864306353E-3
3.919882674E0 -2.419026382E-2 2.291617356E-2 -5.218534265E-3
3.923882674E0 -3.317870945E-2 1.544616371E-2 -4.136430100E-3
3.927882674E0 -3.508111835E-2 7.016223390E-3 -4.607669078E-3
3.931882674E0 -2.954842336E-2 1.361356815E-3 -3.543018363E-3
3.935882674E0 -2.328269184E-2 -1.919862116E-3 -2.949606394E-3
3.939882674E0 -1.953023486E-2 -2.164208330E-3 -4.450589418E-3
3.943882674E0 -1.631882787E-2 1.745329246E-5 -2.286381321E-3
3.947882674E0 -1.185078546E-2 1.483529806E-3 -2.181661548E-3
3.951882674E0 -5.270894151E-3 1.274090377E-3 -3.036872949E-3
3.955882674E0 3.490658492E-5 9.075712296E-4 -3.874630900E-3
3.959882674E0 3.228859045E-3 -2.164208330E-3 -4.694935866E-3
3.963882674E0 4.363323096E-3 -7.487462368E-3 -6.108652335E-3
3.967882674E0 4.206243437E-3 -1.010545623E-2 -6.928957067E-3
3.971882674E0 2.670353744E-3 -7.312929723E-3 -6.841690745E-3
3.975882674E0 3.141592606E-4 -2.513274085E-3 -6.230825558E-3
3.979882674E0 -4.049163777E-3 8.203047328E-4 -4.555309191E-3
3.983882674E0 -5.951572675E-3 5.305801053E-3 -2.914699726E-3
3.987882674E0 -8.552113548E-3 1.144936029E-2 -2.181661548E-3
3.991882674E0 -1.073377486E-2 1.441641990E-2 -1.535889693E-3
3.995882674E0 -1.160643995E-2 1.216494478E-2 -6.283185212E-4
3.999882674E0 -1.514945831E-2 7.819075137E-3 -8.726646047E-5
4.003882674E0 -1.666789502E-2 4.415682983E-3 -6.981316837E-4
4.007882674E0 -1.902408898E-2 1.884955564E-3 -5.585053586E-4
4.011882674E0 -2.099631168E-2 3.769911127E-3 -3.665191471E-4
4.015882674E0 -2.179916203E-2 5.323254038E-3 -1.745329209E-4
4.019882674E0 -2.323033288E-2 6.789330859E-3 -1.221730490E-4
4.023882674E0 -2.148500271E-2 4.014257342E-3 -1.047197584E-4
4.027882674E0 -2.432988957E-2 -5.113814492E-3 -1.151917269E-3
4.031882674E0 -3.064798191E-2 -2.631956525E-2 -1.727875904E-3
4.035882674E0 -3.275983036E-2 -4.646066576E-2 -3.979350906E-3
4.039882674E0 -2.878047898E-2 -5.550146848E-2 -5.480333697E-3
4.043882674E0 -2.670353837E-2 -5.272639543E-2 -6.318091881E-3
4.047882674E0 -2.780309506E-2 -4.251622036E-2 -6.684611086E-3
4.051882674E0 -3.005456924E-2 -2.871066518E-2 -4.677482415E-3
4.055882674E0 -3.469714522E-2 -1.712168008E-2 -2.338741207E-3
4.059882674E0 -3.878121451E-2 -1.169370580E-2 -6.806784077E-4
4.063882674E0 -4.134684801E-2 -1.343903504E-2 -8.552113432E-4
4.067882674E0 -4.262094200E-2 -2.232276089E-2 -8.901178953E-4
4.071882674E0 -4.234168679E-2 -3.171263263E-2 -1.204277156E-3
4.075882674E0 -4.152138159E-2 -3.748967126E-2 -8.377580671E-4
4.079882674E0 -3.981095925E-2 -4.049163684E-2 -4.363323096E-4
4.083882674E0 -3.454006463E-2 -3.947934881E-2 6.981316837E-4
4.087882674E0 -2.940879762E-2 -3.708824515E-2 1.047197584E-4
4.091882674E0 -2.579596639E-2 -3.286454827E-2 3.839724232E-4
4.095882674E0 -2.666863054E-2 -2.754129469E-2 3.141592606E-4
4.099882674E0 -2.885029279E-2 -2.118829638E-2 1.570796303E-4
4.103882674E0 -3.319616243E-2 -1.275835652E-2 -4.886921961E-4
4.107882674E0 -3.762929887E-2 -4.380776547E-3 -9.424777818E-4
4.111882674E0 -3.984586522E-2 -1.448623254E-3 -7.679448463E-4
4.115882674E0 -3.967133537E-2 -4.433136433E-3 -2.234021435E-3
4.119882674E0 -3.330088034E-2 -8.691739291E-3 -3.211405827E-3
4.123882674E0 -2.125811018E-2 -9.354964830E-3 -3.019419499E-3
4.127882674E0 -1.027998887E-2 -1.027998887E-2 -2.059488557E-3
4.131882674E0 -5.009094719E-3 -1.546361670E-2 -9.075712296E-4
4.135882674E0 -2.286381321E-3 -2.586578019E-2 -1.204277156E-3
4.139882674E0 1.570796361E-3 -3.836233541E-2 3.490658419E-4
4.143882674E0 5.445427261E-3 -4.974188283E-2 -4.363323096E-4
4.147882674E0 9.913469665E-3 -6.054547057E-2 -4.886921961E-4
4.151882674E0 9.878563695E-3 -6.757915020E-2 -3.490658419E-4
4.155882674E0 7.749261800E-3 -6.640977412E-2 2.792526793E-4
4.159882674E0 2.687806962E-3 -6.248278543E-2 1.186823938E-3
4.163882674E0 -4.171337001E-3 -5.724680051E-2 8.203047328E-4
4.167882674E0 -1.291543618E-2 -5.105087906E-2 -1.570796303E-4
4.171882674E0 -2.029817924E-2 -4.958480224E-2 -2.617993741E-4
4.175882674E0 -2.343977243E-2 -5.192354321E-2 -4.363323096E-4
4.179882674E0 -2.199114859E-2 -5.298819765E-2 -1.396263367E-3
4.183882674E0 -2.055997774E-2 -4.724606127E-2 -1.483529806E-3
4.187882674E0 -2.244493365E-2 -3.881612420E-2 -1.064650831E-3
4.191882674E0 -2.775073424E-2 -2.684316412E-2 -8.028514567E-4
4.195882674E0 -3.455751762E-2 -1.347394194E-2 -2.792526793E-4
4.199882674E0 -3.935717419E-2 -4.415682983E-3 -1.396263397E-4
4.203882674E0 -3.848451003E-2 -4.014257342E-3 -1.047197584E-4
4.207882674E0 -3.104940802E-2 -2.565633971E-3 3.316125658E-4
4.211882674E0 -1.886700839E-2 4.415682983E-3 -4.363323096E-4
4.215882674E0 -8.150687441E-3 1.136209350E-2 -4.886921961E-4
4.219882674E0 -3.560471581E-3 1.483529899E-2 -2.460914198E-3
4.223882674E0 -4.014257283E-4 1.153662615E-2 -3.281218931E-3
4.227882674E0 3.717551241E-3 2.687806962E-3 -3.333578818E-3
4.231882674E0 1.066396199E-2 -9.529497474E-3 -3.804817796E-3
4.235882674E0 1.940806210E-2 -2.206096239E-2 -4.066617228E-3
4.239882674E0 2.438225038E-2 -2.804744057E-2 -4.450589418E-3
4.243882674E0 2.268928103E-2 -2.839650773E-2 -4.537856206E-3
4.247882674E0 1.425934024E-2 -2.623229846E-2 -4.869468510E-3
4.251882674E0 4.677482415E-3 -2.115339041E-2 -3.909537569E-3
4.255882674E0 -3.822271014E-3 -1.516691130E-2 -5.305801053E-3
4.259882674E0 -1.235693134E-2 -7.871435024E-3 -4.921828397E-3
4.263882674E0 -2.045525797E-2 -2.216568217E-3 -2.862340072E-3
4.267882674E0 -3.115412779E-2 5.724680144E-3 -2.617993858E-3
4.271882674E0 -4.040437192E-2 1.261873078E-2 -3.019419499E-3
4.275882674E0 -5.005604401E-2 1.637118869E-2 -1.605702913E-3
4.279882674E0 -5.572836101E-2 1.748819835E-2 -1.919862116E-4
4.283882674E0 -5.902703479E-2 1.823868975E-2 3.141592606E-4
4.287882674E0 -6.017895415E-2 1.513200440E-2 2.565633971E-3
4.291882674E0 -5.581562966E-2 7.836528122E-3 3.438298590E-3
4.295882674E0 -5.255186185E-2 6.981316983E-5 4.433136433E-3
4.299882674E0 -4.794419557E-2 -1.382300723E-2 4.677482415E-3
4.303882674E0 -4.569271952E-2 -3.340560198E-2 5.201081280E-3
4.307882674E0 -3.925245628E-2 -5.703736097E-2 4.136430100E-3
4.311882674E0 -2.522000670E-2 -7.991862297E-2 2.652900526E-3
4.315882674E0 -4.101523664E-3 -9.341002256E-2 1.500983140E-3
4.319882674E0 1.900663599E-2 -9.737192094E-2 9.075712296E-4
4.323882674E0 3.604104742E-2 -9.389871359E-2 4.537856148E-4
4.327882674E0 4.183554277E-2 -8.576548100E-2 2.897246508E-3
4.331882674E0 3.462733328E-2 -7.204718888E-2 3.682644805E-3
4.335882674E0 2.143264376E-2 -5.642649531E-2 2.687806962E-3
4.339882674E0 1.122246683E-2 -4.752531648E-2 2.268928103E-3
4.343882674E0 3.438298590E-3 -4.520402849E-2 1.867502346E-3
4.347882674E0 1.099557383E-3 -4.340633750E-2 1.448623254E-3
4.351882674E0 -1.291543595E-3 -3.902556375E-2 8.901178953E-4
4.355882674E0 -4.031710327E-3 -2.900737152E-2 9.075712296E-4
4.359882674E0 -8.796459064E-3 -1.960004680E-2 1.361356815E-3
4.363882674E0 -1.246165112E-2 -1.324704941E-2 8.726646192E-4
4.367882674E0 -1.506219152E-2 -8.883725852E-3 3.001966281E-3
4.371882674E0 -1.453859266E-2 -4.433136433E-3 3.263765713E-3
4.375882674E0 -1.319468953E-2 -1.151917269E-3 4.084070213E-3
4.379882674E0 -1.630137488E-2 -2.111848444E-3 3.385938704E-3
4.383882674E0 -2.164208330E-2 -1.199041214E-2 2.757620299E-3
4.387882674E0 -2.303834632E-2 -1.984439418E-2 1.239183708E-3
4.391882674E0 -1.933824830E-2 -1.979203336E-2 6.806784077E-4
4.395885799E0 -1.354375482E-2 -1.359611470E-2 6.981316837E-4
4.399885799E0 -7.068583276E-3 -3.857177682E-3 6.981316837E-4
4.403885799E0 -5.829399452E-3 6.038838997E-3 1.448623254E-3
4.407884237E0 -7.312929723E-3 1.134464052E-2 7.504915702E-4
4.411885799E0 -1.267109066E-2 1.076868176E-2 5.585053586E-4
4.415884237E0 -1.647590846E-2 6.702064537E-3 -6.981316983E-5
4.419882674E0 -1.206022501E-2 -2.757620299E-3 -6.981316837E-4
4.423882674E0 6.806784077E-4 -1.202531811E-2 -1.012290944E-3
4.427882674E0 1.499237865E-2 -1.054178830E-2 -2.740166849E-3
4.431884237E0 2.415535599E-2 2.338741207E-3 -2.897246508E-3
4.435885799E0 2.293362655E-2 1.759291813E-2 -9.773843922E-4
4.439882674E0 1.733111963E-2 2.790781483E-2 -1.832595677E-3
4.443882674E0 9.704031050E-3 3.466223925E-2 -1.308996929E-3
4.447882674E0 1.692969352E-3 3.897320107E-2 -4.188790335E-4
4.451882674E0 -5.951572675E-3 3.949680179E-2 -9.250245057E-4
4.455882674E0 -1.457349956E-2 3.572688997E-2 -4.712388909E-4
4.459882674E0 -2.104867063E-2 3.368485346E-2 -4.886921961E-4
4.463882674E0 -2.617993951E-2 3.118903376E-2 -3.490658419E-4
4.467882674E0 -3.024655581E-2 2.963569015E-2 -9.075712296E-4
4.471882674E0 -3.309144080E-2 2.862340026E-2 -4.712388909E-4
4.475882674E0 -3.731513768E-2 2.792526782E-2 -4.886921961E-4
4.479882674E0 -3.841469809E-2 2.471386269E-2 -1.256637042E-3
4.483882674E0 -3.914773464E-2 2.328269184E-2 -4.014257283E-4
4.487882674E0 -3.963642567E-2 1.764527895E-2 1.047197584E-4
4.491882674E0 -4.066617042E-2 3.979350906E-3 8.726646047E-5
4.495882674E0 -3.989822790E-2 -1.610938832E-2 -1.239183708E-3
4.499882674E0 -3.064798191E-2 -3.342305496E-2 -2.059488557E-3
4.503882674E0 -1.335176919E-2 -3.778637946E-2 -2.111848444E-3
4.507882674E0 1.099557383E-3 -3.078760765E-2 -2.583087189E-3
4.511882674E0 1.104793418E-2 -2.234021388E-2 -3.316125600E-3
4.515882674E0 1.408480667E-2 -1.591740362E-2 -2.286381321E-3
4.519882674E0 1.127482671E-2 -1.092576142E-2 -1.274090377E-3
4.523882674E0 4.956734832E-3 -7.225662936E-3 -4.014257283E-4
4.527882674E0 1.047197497E-3 -6.998770405E-3 1.047197584E-4
4.531882674E0 -1.605702913E-3 -6.056292448E-3 5.410520826E-4
4.535882674E0 -2.757620299E-3 -3.246312495E-3 5.061454722E-4
4.539882674E0 -3.351032268E-3 2.740166849E-3 5.235987919E-5
4.543882674E0 -4.852015525E-3 8.674286306E-3 -5.235987919E-5
4.547882674E0 -7.976154797E-3 1.232202444E-2 -8.726646047E-5
4.551882674E0 -8.621926419E-3 1.239183731E-2 6.457717973E-4
4.555882674E0 -6.387905218E-3 8.325220086E-3 2.268928074E-4
4.559882674E0 -2.338741207E-3 3.490658419E-4 8.726646192E-4
4.563882674E0 -5.235987483E-4 -8.499753661E-3 5.934119690E-4
4.567882674E0 -9.599310579E-4 -1.141445339E-2 1.570796361E-3
4.571882674E0 -6.492624991E-3 -1.487020496E-2 1.832595677E-3
4.575882674E0 -1.064650808E-2 -2.118829638E-2 2.443460980E-4
4.579882674E0 -1.384046115E-2 -3.173008561E-2 -6.108652451E-4
4.583882674E0 -1.422443334E-2 -4.003785178E-2 -8.377580671E-4
4.587882674E0 -1.296779606E-2 -4.281292483E-2 -8.901178953E-4
4.591882674E0 -1.052433532E-2 -4.143411666E-2 -1.204277156E-3
4.595882674E0 -8.534659632E-3 -4.075343907E-2 -1.588249579E-3
4.599882674E0 -8.325220086E-3 -3.803072497E-2 -7.853981806E-4
4.603882674E0 -7.365289610E-3 -3.492403775E-2 -2.792526793E-4
4.607882674E0 -3.961897455E-3 -2.717477642E-2 -4.363323096E-4
4.611882674E0 -1.256637042E-3 -1.583013684E-2 -6.457717973E-4
4.615882674E0 3.333578818E-3 -3.071779385E-3 5.235987919E-5
4.619882674E0 9.965829551E-3 7.906341925E-3 2.268928074E-4
4.623882674E0 1.576032303E-2 1.769763790E-2 8.726646192E-4
4.627882674E0 1.998401992E-2 1.830850355E-2 1.047197497E-3
4.631882674E0 2.408554405E-2 1.424188633E-2 1.239183708E-3
4.635882674E0 2.830924094E-2 8.656833321E-3 2.443460980E-4
4.639882674E0 3.529055789E-2 3.438298590E-3 0.000000000E0
4.643882674E0 3.996803984E-2 -2.565633971E-3 -5.235987483E-4
4.647882674E0 4.330161959E-2 -4.904375412E-3 -5.061454722E-4
4.651882674E0 4.040437192E-2 -2.042035107E-3 -6.632251316E-4
4.655882674E0 3.574434295E-2 2.600540640E-3 -4.014257283E-4
4.659882674E0 2.745402977E-2 8.342674002E-3 -3.316125658E-4
4.663888924E0 2.045525797E-2 1.675515994E-2 -4.537856148E-4
4.667882674E0 1.532399096E-2 1.956514083E-2 -1.535889693E-3
4.671882674E0 1.324704941E-2 1.893682219E-2 -1.675516134E-3
4.675882674E0 1.418952644E-2 1.755801216E-2 -1.413716702E-3
4.679882674E0 1.624901593E-2 1.870992966E-2 -1.343903481E-3
4.683882674E0 1.785471849E-2 2.050761878E-2 -1.326450263E-3
4.687882674E0 1.991420612E-2 2.293362655E-2 -8.726646192E-4
4.691882674E0 1.911135577E-2 2.478367463E-2 -1.500983140E-3
4.695882674E0 2.038544603E-2 2.436479554E-2 -2.722713631E-3
4.699882674E0 2.225294709E-2 2.258456126E-2 -2.286381321E-3
4.703882674E0 1.895427518E-2 2.015855350E-2 -2.164208330E-3
4.707882674E0 1.448623277E-2 2.134537697E-2 -2.443460980E-3
4.711882674E0 1.122246683E-2 2.270673402E-2 -7.155850180E-4
4.715882674E0 6.161012221E-3 2.350958437E-2 -2.617993741E-4
4.719882674E0 6.108652451E-4 2.085668407E-2 4.363323096E-4
4.723882674E0 3.368485486E-3 2.061233856E-2 1.082104165E-3
4.727882674E0 1.162389293E-2 2.281145379E-2 6.457717973E-4
4.731882674E0 2.040289901E-2 2.354449220E-2 6.806784077E-4
4.735882674E0 2.661627159E-2 1.951278187E-2 6.981316837E-4
4.739882674E0 2.762856148E-2 1.410226058E-2 8.552113432E-4
4.743882674E0 2.729694918E-2 8.325220086E-3 1.396263397E-4
4.747882674E0 2.343977243E-2 8.168140426E-3 2.443460980E-4
4.751882674E0 1.867502369E-2 8.744099177E-3 1.343903481E-3
4.755882674E0 1.200786512E-2 6.632251199E-3 2.059488557E-3
4.759882674E0 5.759586580E-3 2.757620299E-3 2.565633971E-3
4.763882674E0 1.710422686E-3 -2.443460980E-3 3.438298590E-3
4.767882674E0 8.028514567E-4 -7.871435024E-3 2.775073517E-3
4.771882674E0 1.780235791E-3 -1.425934024E-2 3.804817796E-3
4.775882674E0 9.773843922E-4 -2.043780498E-2 4.363323096E-3
4.779882674E0 -1.221730490E-4 -2.476622164E-2 4.066617228E-3
4.783882674E0 -3.560471581E-3 -2.527236752E-2 2.775073517E-3
4.787882674E0 -5.672320258E-3 -3.082251363E-2 1.692969352E-3
4.791882674E0 -7.574729156E-3 -3.454006463E-2 5.061454722E-4
4.795882674E0 -6.265731994E-3 -3.445279971E-2 3.490658419E-4
4.799882674E0 -6.824237294E-3 -2.902482450E-2 9.075712296E-4
4.803882674E0 -1.132718660E-2 -2.157226950E-2 1.500983140E-3
4.807882674E0 -1.432915311E-2 -1.391027402E-2 1.658062800E-3
4.811882674E0 -1.841322333E-2 -7.539822254E-3 1.553343027E-3
4.815882674E0 -2.038544603E-2 -6.632251199E-3 1.082104165E-3
4.819882674E0 -2.043780498E-2 -8.813912980E-3 1.239183708E-3
4.823882674E0 -2.015855350E-2 -1.268854365E-2 1.588249579E-3
4.827882674E0 -1.797689125E-2 -1.595230959E-2 2.443460980E-3
4.831882674E0 -1.349139493E-2 -1.953023486E-2 3.106686054E-3
4.835882674E0 -7.208209950E-3 -2.029817924E-2 3.892084118E-3
4.839882674E0 -1.570796303E-4 -2.275909297E-2 3.036872949E-3
4.843882674E0 7.993607782E-3 -2.881538495E-2 2.809980186E-3
4.847882674E0 1.298524998E-2 -3.612831607E-2 2.757620299E-3
4.851882674E0 1.504473854E-2 -3.834488243E-2 2.879793290E-3
4.855882674E0 1.527163107E-2 -3.319616243E-2 2.321287990E-3
4.859882674E0 1.577777602E-2 -2.733185515E-2 2.321287990E-3
4.863882674E0 1.727875881E-2 -2.323033288E-2 1.867502346E-3
4.867882674E0 1.600466855E-2 -2.066469751E-2 1.919862116E-3
4.871882674E0 1.357866172E-2 -1.909390278E-2 2.216568217E-3
4.875882674E0 6.614797749E-3 -1.596976258E-2 2.146754880E-3
4.879882674E0 -1.361356815E-3 -1.155408006E-2 7.853981806E-4
4.883882674E0 -9.616764262E-3 -7.086036727E-3 1.623156248E-3
4.887882674E0 -1.448623277E-2 -5.166174378E-3 2.600540640E-3
4.891882674E0 -1.890191622E-2 -4.363323096E-3 1.937315450E-3
4.895882674E0 -2.005383372E-2 -8.220500313E-3 1.623156248E-3
4.899882674E0 -1.975712739E-2 -1.523672417E-2 3.490658492E-5
4.903882674E0 -1.907644793E-2 -2.158972248E-2 2.268928074E-4
4.907882674E0 -1.588249579E-2 -2.356194519E-2 -4.537856148E-4
4.911882674E0 -1.415462047E-2 -1.909390278E-2 -1.919862116E-4
4.915882674E0 -1.324704941E-2 -1.596976258E-2 1.064650831E-3
4.919882674E0 -1.256637089E-2 -1.710422710E-2 3.490658419E-4
4.923882674E0 -1.268854365E-2 -2.612757869E-2 0.000000000E0
4.927882674E0 -9.704031050E-3 -3.677408770E-2 3.665191471E-4
4.931882674E0 -3.665191354E-3 -4.136430472E-2 3.141592606E-4
4.935882674E0 5.270894151E-3 -4.045673087E-2 1.204277156E-3
4.939882674E0 1.122246683E-2 -3.735004738E-2 1.588249579E-3
4.943882674E0 1.082104165E-2 -3.173008561E-2 1.082104165E-3
4.947882674E0 8.150687441E-3 -2.319542505E-2 1.396263367E-3
4.951882674E0 2.495820867E-3 -1.494001877E-2 1.640609466E-3
4.955882674E0 -2.426007763E-3 -8.709193207E-3 9.424777818E-4
4.959882674E0 -5.078908056E-3 -6.038838997E-3 1.570796303E-4
4.963882674E0 -5.323254038E-3 -4.433136433E-3 -1.745329246E-5
4.967882674E0 -3.874630900E-3 -4.328416660E-3 -8.726646047E-5
4.971882674E0 -5.742133129E-3 -4.136430100E-3 9.424777818E-4
4.975882674E0 -7.888888009E-3 -4.852015525E-3 1.745329246E-5
4.979882674E0 -9.215338156E-3 -5.026548170E-3 -8.203047328E-4
4.983882674E0 -6.841690745E-3 -9.581857361E-3 -2.094394993E-3
4.987884237E0 -4.118977115E-3 -1.605702937E-2 -7.679448463E-4
4.991882674E0 7.853981806E-4 -1.940806210E-2 -1.029744279E-3
4.995882674E0 4.188789986E-3 -1.757546514E-2 -9.424777818E-4
4.999882674E0 1.902408898E-3 -1.226966456E-2 -3.141592606E-4
5.003882674E0 -7.679448463E-4 -8.325220086E-3 1.221730490E-4
5.007882674E0 -2.530727303E-3 -6.248278543E-3 -3.316125658E-4
5.011882674E0 -2.705260413E-3 -1.029744279E-3 -1.570796303E-4
5.015882674E0 -1.972222002E-3 5.881759338E-3 -1.047197584E-4
5.019882674E0 -3.909537569E-3 1.310742274E-2 1.745329209E-4
5.023882674E0 -7.260569837E-3 1.589994878E-2 1.221730490E-4
5.027882674E0 -1.235693134E-2 1.781981252E-2 -3.490658492E-5
5.031882674E0 -1.638864167E-2 1.637118869E-2 -8.726646047E-5
5.035882674E0 -1.865756884E-2 1.087340154E-2 -8.726646047E-5
5.039882674E0 -1.909390278E-2 4.031710327E-3 -1.047197584E-4
5.043882674E0 -1.453859266E-2 -5.585053470E-3 -5.410520826E-4
5.047882674E0 -8.988445625E-3 -8.395033889E-3 2.268928074E-4
5.051882674E0 -3.769911127E-3 -6.859143730E-3 5.759586347E-4
5.055882674E0 -2.862340072E-3 -4.206243437E-3 3.665191471E-4
5.059882674E0 -5.934119225E-3 -4.869468510E-3 1.745329246E-5
5.063888924E0 -6.597344764E-3 -1.000073645E-2 -6.981316983E-5
5.067882674E0 -8.569566533E-3 -1.766273193E-2 -8.726646047E-5
5.071882674E0 -9.250245057E-3 -1.862266287E-2 -4.014257283E-4
5.075882674E0 -8.342674002E-3 -1.495747175E-2 -1.082104165E-3
5.079882674E0 -9.180432186E-3 -1.172861271E-2 -5.061454722E-4
5.083882674E0 -9.546951391E-3 -7.731808349E-3 -2.164208330E-3
5.087882674E0 -9.791296907E-3 -3.385938704E-3 -2.897246508E-3
5.091882674E0 -8.953538723E-3 1.658062800E-3 -2.635447076E-3
5.095882674E0 -8.133234456E-3 5.829399452E-3 -3.316125600E-3
5.099882674E0 -9.861109778E-3 9.180432186E-3 -2.600540640E-3
5.103882674E0 -8.831365965E-3 1.230457146E-2 -1.797689125E-3
5.107882674E0 -1.064650808E-2 1.237438433E-2 -5.410520826E-4
5.111882674E0 -1.279326342E-2 1.359611470E-2 -2.094395168E-4
5.115882674E0 -1.485275198E-2 1.315978263E-2 -8.726646192E-4
5.119882674E0 -1.387536712E-2 1.078613475E-2 -4.537856148E-4
5.123882674E0 -1.499237865E-2 7.609635592E-3 -6.457717973E-4
5.127882674E0 -1.452113967E-2 3.630284918E-3 -9.948377265E-4
5.131882674E0 -1.394518092E-2 3.141592606E-4 -4.886921961E-4
5.135882674E0 -1.048942842E-2 -2.321287990E-3 -1.396263367E-3
5.139882674E0 -8.674286306E-3 -6.335545331E-3 -1.047197497E-3
5.143882674E0 -8.203047328E-3 -7.836528122E-3 -1.692969352E-3
5.147882674E0 -8.377579972E-3 -7.470009383E-3 -2.024581889E-3
5.151882674E0 -9.180432186E-3 -5.567600485E-3 -2.111848444E-3
5.155882674E0 -9.861109778E-3 -2.809980186E-3 -1.972222002E-3
5.159882674E0 -9.267698042E-3 -1.343903481E-3 -2.687806962E-3
5.163882674E0 -9.861109778E-3 -3.822271014E-3 -2.129301662E-3
5.167882674E0 -8.517206647E-3 -6.422811653E-3 -2.426007763E-3
5.171882674E0 -6.963863503E-3 -5.759586580E-3 -1.308996929E-3
5.175882674E0 -5.358160939E-3 -1.361356815E-3 -1.762782573E-3
5.179882674E0 -4.171337001E-3 2.268928074E-4 -1.884955564E-3
5.183882674E0 -2.967059612E-3 2.740166849E-3 -1.919862116E-3
5.187882674E0 -3.403391922E-3 6.108652335E-3 -1.780235791E-3
5.191882674E0 -4.118977115E-3 8.045967668E-3 -2.495820867E-3
5.195882674E0 -6.719517522E-3 4.049163777E-3 -1.623156248E-3
5.199882674E0 -4.834562074E-3 -3.316125600E-3 -2.443460980E-3
5.203882674E0 -3.001966281E-3 -1.246165112E-2 -2.216568217E-3
5.207882674E0 -2.356194425E-3 -1.937315427E-2 -2.617993858E-3
5.211882674E0 -4.014257342E-3 -2.192133479E-2 -1.658062800E-3
5.215882674E0 -6.981316954E-3 -1.912880875E-2 -6.457717973E-4
5.219882674E0 -1.153662615E-2 -1.417207345E-2 -6.981316837E-4
5.223882674E0 -1.617920212E-2 -1.153662615E-2 -2.443460980E-4
5.227882674E0 -1.724385284E-2 -8.883725852E-3 1.396263397E-4
5.231882674E0 -1.932079531E-2 -7.138396613E-3 5.585053586E-4
5.235882674E0 -2.106612362E-2 -1.043706853E-2 -2.268928074E-4
5.239882674E0 -2.167698927E-2 -1.596976258E-2 -1.186823938E-3
5.243882674E0 -2.017600648E-2 -2.343977243E-2 -8.377580671E-4
5.247882674E0 -1.933824830E-2 -2.689552307E-2 -1.047197497E-3
5.251882674E0 -1.806415804E-2 -2.794272080E-2 -8.028514567E-4
5.255882674E0 -1.562069636E-2 -2.956587821E-2 -1.780235791E-3
5.259882674E0 -1.349139493E-2 -3.284709528E-2 -2.652900526E-3
5.263882674E0 -9.162978269E-3 -3.642502055E-2 -3.473205259E-3
5.267882674E0 -5.480333697E-3 -4.157374427E-2 -4.433136433E-3
5.271882674E0 -1.500983140E-3 -4.621632025E-2 -6.492624991E-3
5.275882674E0 2.076941775E-3 -4.834562168E-2 -6.736970972E-3
5.279882674E0 5.864306353E-3 -4.904375225E-2 -7.539822254E-3
5.283884237E0 9.564404376E-3 -4.410447180E-2 -6.405358203E-3
5.287882674E0 1.129228063E-2 -3.529055789E-2 -5.201081280E-3
5.291882674E0 1.218239777E-2 -2.801253460E-2 -4.590216093E-3
5.295882674E0 1.408480667E-2 -2.776818909E-2 -3.385938704E-3
5.299884237E0 1.816887781E-2 -3.494149074E-2 -3.351032268E-3
5.303882674E0 2.602285892E-2 -4.434881732E-2 -2.146754880E-3
5.307882674E0 3.635520861E-2 -4.874704406E-2 -2.286381321E-3
5.311882674E0 4.235913977E-2 -5.005604401E-2 -2.181661548E-3
5.315882674E0 5.084143952E-2 -4.918337986E-2 -2.600540640E-3
5.319882674E0 5.457644537E-2 -4.954989627E-2 -3.909537569E-3
5.323882674E0 5.523966998E-2 -5.235987902E-2 -5.009094719E-3
5.327882674E0 5.389576778E-2 -5.386086181E-2 -4.991641734E-3
5.331882674E0 5.084143952E-2 -5.033529550E-2 -6.946410518E-3
5.335882674E0 4.614650458E-2 -4.234168679E-2 -6.841690745E-3
5.339882674E0 3.422590718E-2 -3.406882659E-2 -7.278022822E-3
5.343882674E0 2.028072625E-2 -3.176499158E-2 -8.133234456E-3
5.347882674E0 4.153883550E-3 -3.717551380E-2 -1.062905509E-2
5.351882674E0 -9.232792072E-3 -4.717624933E-2 -1.157153305E-2
5.355882674E0 -1.994911395E-2 -5.565854907E-2 -1.106538717E-2
5.359882674E0 -3.117158078E-2 -5.623450875E-2 -1.108284108E-2
5.363888924E0 -4.387757555E-2 -4.103269055E-2 -8.377579972E-3
5.367882674E0 -5.771803856E-2 -1.989675313E-2 -5.724680144E-3
5.371882674E0 -7.278022915E-2 -1.570796361E-3 -2.164208330E-3
5.375882674E0 -8.604472876E-2 1.401499379E-2 1.448623254E-3
5.379882674E0 -8.861036599E-2 2.562143281E-2 7.661995478E-3
5.383882674E0 -8.038986474E-2 3.736750036E-2 1.305506285E-2
5.387882674E0 -6.290166825E-2 4.509930685E-2 1.881464943E-2
5.391882674E0 -3.649483621E-2 4.080579802E-2 2.199114859E-2
5.395882674E0 -1.350884791E-2 1.982693933E-2 2.251474746E-2
5.399882674E0 1.099557430E-2 -1.528908405E-2 1.872738265E-2
5.403882674E0 2.733185515E-2 -5.864306167E-2 1.518436428E-2
5.407882674E0 3.518583626E-2 -9.538224339E-2 1.080358773E-2
5.411882674E0 2.958333120E-2 -1.191361770E-1 8.447393775E-3
5.415882674E0 5.078908056E-3 -1.185602173E-1 1.113520097E-2
5.419882674E0 -3.544763848E-2 -8.349654824E-2 3.019419685E-2
5.423882674E0 -9.541714936E-2 -5.585053470E-3 6.813765317E-2
5.427882674E0 -1.480911821E-1 1.157502383E-1 1.123468429E-1
5.431882674E0 -1.907295734E-1 2.431592643E-1 1.529606581E-1
5.435882674E0 -2.143613398E-1 3.360631466E-1 1.730493903E-1
5.439882674E0 -2.114989907E-1 3.629935682E-1 1.809731871E-1
5.443882674E0 -1.711818874E-1 3.281742632E-1 1.741838604E-1
5.447882674E0 -9.983283281E-2 2.460565120E-1 1.525068730E-1
5.451882674E0 -4.590216093E-3 1.484053433E-1 1.405164599E-1
5.455882674E0 8.466592431E-2 1.211956665E-1 1.402721107E-1
5.459882674E0 1.651605070E-1 2.277305573E-1 8.159413934E-2
5.463888924E0 2.068040669E-1 3.592411280E-1 -1.253146399E-2
5.467882674E0 2.003637999E-1 4.328940213E-1 -5.277875811E-2
5.471882674E0 1.565036774E-1 4.084768593E-1 -3.752457723E-2
5.475882674E0 9.613273293E-2 3.000046313E-1 -7.278022822E-3
5.479882674E0 2.843141370E-2 1.294161677E-1 3.612831468E-3
5.483882674E0 -3.225368261E-2 -5.899212882E-2 1.047197584E-4
5.487884237E0 -7.248352468E-2 -1.964018941E-1 -3.351032268E-3
5.491882674E0 -8.674286306E-2 -2.498787940E-1 -6.457717973E-4
5.495882674E0 -7.225663215E-2 -2.034530342E-1 5.235987919E-5
5.499882674E0 -2.902482450E-2 -8.878489584E-2 -1.099557383E-3
5.503882674E0 1.733111963E-2 5.510004610E-2 -6.632251316E-4
5.507882674E0 5.321509019E-2 1.532050073E-1 3.490658492E-5
5.511882674E0 6.724753231E-2 1.794023961E-1 6.981316983E-5
5.515882674E0 5.946336687E-2 1.398532391E-1 -3.490658419E-4
5.519882674E0 3.124139272E-2 5.438445881E-2 -3.141592606E-4
5.523882674E0 2.268928074E-4 -3.038618155E-2 -1.658062800E-3
5.527882674E0 -3.132865950E-2 -9.121090919E-2 -1.256637042E-3
5.531882674E0 -4.981169850E-2 -1.022937447E-1 -1.308996929E-3
5.535882674E0 -4.935790971E-2 -6.901031733E-2 -4.188790335E-4
5.539882674E0 -3.298672289E-2 -1.003564335E-2 -1.745329209E-4
5.543882674E0 -6.719517522E-3 4.794419557E-2 -1.221730490E-4
5.547882674E0 1.818633080E-2 7.784168422E-2 6.283185212E-4
5.551882674E0 3.385938704E-2 7.000515610E-2 2.268928074E-4
5.555882674E0 3.871140257E-2 3.316125646E-2 0.000000000E0
5.559882674E0 3.078760765E-2 -1.122246683E-2 -1.117010717E-3
5.563882674E0 1.336922217E-2 -4.871213809E-2 -6.632251316E-4
5.567882674E0 -6.073745899E-3 -5.955063552E-2 -5.410520826E-4
5.571882674E0 -2.003637888E-2 -4.101523757E-2 -1.256637042E-3
5.575904549E0 -2.652900480E-2 -6.195918657E-3 -8.552113432E-4
5.579882674E0 -2.387610450E-2 3.118903376E-2 0.000000000E0
5.583882674E0 -1.382300723E-2 5.162683874E-2 6.981316983E-5
5.587882674E0 -2.478367416E-3 5.169665068E-2 -5.235987919E-5
5.591882674E0 6.492624991E-3 3.139847144E-2 -8.726646047E-5
5.595882674E0 1.319468953E-2 2.146754880E-3 -5.410520826E-4
5.599882674E0 1.645845547E-2 -2.309070528E-2 -8.203047328E-4
5.603882674E0 1.293289009E-2 -3.644247353E-2 -5.934119690E-4
5.607882674E0 6.894050632E-3 -3.136356547E-2 -2.268928074E-4
5.611882674E0 1.413716702E-3 -1.377064735E-2 -2.792526793E-4
5.615882674E0 -4.363323096E-3 7.976154797E-3 0.000000000E0
5.619882674E0 -7.853982039E-3 2.118829638E-2 -6.981316983E-5
5.623882674E0 -6.178465672E-3 2.357939817E-2 -5.410520826E-4
5.627882674E0 -4.852015525E-3 1.532399096E-2 -2.094395168E-4
5.631882674E0 -3.298672382E-3 3.525565146E-3 -1.221730490E-4
5.635882674E0 9.948377265E-4 -6.457718089E-3 -8.552113432E-4
5.639882674E0 1.832595677E-3 -1.073377486E-2 -1.658062800E-3
5.643882674E0 1.448623254E-3 -8.988445625E-3 -6.457717973E-4
5.647882674E0 5.934119690E-4 -4.904375412E-3 -9.948377265E-4
5.651882674E0 6.632251316E-4 6.457717973E-4 -4.886921961E-4
5.655882674E0 1.134464052E-3 4.974188283E-3 -9.424777818E-4
5.659882674E0 1.413716702E-3 5.340707488E-3 -4.712388909E-4
5.663882674E0 2.076941775E-3 4.084070213E-3 -1.919862116E-4
5.667882674E0 2.862340072E-3 1.797689125E-3 3.141592606E-4
5.671882674E0 3.979350906E-3 2.967059845E-4 2.967059845E-4
5.675882674E0 2.757620299E-3 -6.981316983E-5 1.396263397E-4
5.679882674E0 2.583087189E-3 -1.745329209E-4 -4.886921961E-4
5.683882674E0 2.792526793E-4 1.291543595E-3 -4.886921961E-4
5.687882674E0 0.000000000E0 3.176499158E-3 -6.457717973E-4
5.691882674E0 -1.431170036E-3 3.211405827E-3 3.490658492E-5
5.695882674E0 -9.075712296E-4 1.570796361E-3 -1.117010717E-3
5.699882674E0 -1.815142459E-3 -1.099557383E-3 -1.117010717E-3
5.703882674E0 -2.356194425E-3 -4.817108624E-3 -3.665191471E-4
5.707882674E0 -1.902408898E-3 -3.228859045E-3 -1.745329209E-4
5.711882674E0 -7.155850180E-4 -1.308996929E-3 -8.726646192E-4
5.715882674E0 -1.012290944E-3 2.495820867E-3 -7.504915702E-4
5.719882674E0 -3.490658492E-5 4.537856206E-3 -1.169370604E-3
5.723882674E0 6.457717973E-4 4.782202188E-3 -5.235987483E-4
5.727882674E0 1.431170036E-3 3.926991019E-3 -9.599310579E-4
5.731882674E0 8.901178953E-4 1.466076588E-3 -4.712388909E-4
5.735882674E0 5.934119690E-4 -2.268928074E-4 -3.490658492E-5
5.739882674E0 5.235987483E-4 5.235987483E-4 5.235987919E-5
5.743882674E0 -5.410520826E-4 3.717551241E-3 8.726646047E-5
5.747882674E0 -1.570796361E-3 3.822271014E-3 -5.235987919E-5
5.751882674E0 -7.853981806E-4 8.203047328E-4 -8.726646047E-5
5.755882674E0 4.537856148E-4 -2.042035107E-3 3.490658492E-5
5.759882674E0 9.250245057E-4 -4.904375412E-3 -9.599310579E-4
5.763888924E0 1.361356815E-3 -6.248278543E-3 -4.712388909E-4
5.767882674E0 3.577925032E-3 -2.844886621E-3 -6.457717973E-4
5.771882674E0 3.263765713E-3 1.396263397E-4 -2.443460980E-4
5.775882674E0 1.658062800E-3 4.834562074E-3 -1.396263397E-4
5.779882674E0 8.028514567E-4 9.808750823E-3 3.316125658E-4
5.783882674E0 -1.570796303E-4 1.263618376E-2 0.000000000E0
5.787882674E0 -5.759586347E-4 5.393067375E-3 -5.235987483E-4
5.791882674E0 -4.136430100E-3 -9.285151958E-3 -2.094395168E-4
5.795882674E0 -7.627088577E-3 -2.364921197E-2 1.745329246E-5
5.799882674E0 -1.094321441E-2 -3.296926990E-2 -6.632251316E-4
5.803882674E0 -1.106538717E-2 -3.405137360E-2 3.490658492E-5
5.807882674E0 -7.033676840E-3 -2.530727349E-2 8.203047328E-4
5.811882674E0 -8.552113432E-4 -7.208209950E-3 2.792526793E-4
5.815882674E0 5.707226694E-3 1.284562331E-2 7.330382941E-4
5.819882674E0 9.686577134E-3 2.637192421E-2 5.585053586E-4
5.823882674E0 1.178097259E-2 2.494075522E-2 2.094395168E-4
5.827882674E0 8.098327555E-3 1.221730467E-2 -1.745329246E-5
5.831882674E0 3.228859045E-3 -1.186823938E-3 -6.981316983E-5
5.835882674E0 -1.780235791E-3 -7.993607782E-3 -3.839724232E-4
5.839882674E0 -5.201081280E-3 -9.180432186E-3 -6.283185212E-4
5.843882674E0 -4.153883550E-3 -1.954768784E-3 -3.839724232E-4
5.847882674E0 -1.308996929E-3 8.342674002E-3 -1.745329209E-4
5.851882674E0 1.518436475E-3 1.661553420E-2 -1.221730490E-4
5.855882674E0 4.363323096E-3 1.771509275E-2 7.853981806E-4
5.859882674E0 6.614797749E-3 1.197295822E-2 -9.075712296E-4
5.863888924E0 8.569566533E-3 2.652900526E-3 -1.361356815E-3
5.867882674E0 5.916666240E-3 -3.385938704E-3 -1.221730490E-4
5.871882674E0 2.059488557E-3 -4.660028964E-3 -1.047197584E-4
5.875882674E0 -1.047197497E-3 -1.221730490E-3 -4.014257283E-4
5.879882674E0 -2.757620299E-3 4.764748737E-3 -3.316125658E-4
5.883882674E0 -3.508111695E-3 8.011061698E-3 -1.570796303E-4
5.887882674E0 -3.246312495E-3 6.440265104E-3 -5.585053586E-4
5.891882674E0 -1.675516134E-3 1.518436475E-3 6.632251316E-4
5.895882674E0 -1.413716702E-3 -2.478367416E-3 -6.457717973E-4
5.899882674E0 -1.396263397E-4 -4.415682983E-3 -3.839724232E-4
5.903882674E0 1.675516134E-3 -3.560471581E-3 -4.712388909E-4
5.907882674E0 3.665191354E-3 -2.897246508E-3 -6.457717973E-4
5.911882674E0 2.373647876E-3 -9.075712296E-4 -6.981316837E-4
5.915882674E0 1.884955564E-3 1.850049011E-3 3.316125658E-4
5.919882674E0 1.012290944E-3 5.131267942E-3 1.570796303E-4
5.923882674E0 1.745329209E-4 5.235987715E-3 -3.490658492E-5
5.927882674E0 4.014257283E-4 2.862340072E-3 -3.839724232E-4
5.931885799E0 1.745329209E-4 4.188790335E-4 -7.679448463E-4
5.935882674E0 1.012290944E-3 -1.256637042E-3 -2.792526793E-4
5.939882674E0 2.426007763E-3 -1.535889693E-3 -5.934119690E-4
5.943882674E0 2.652900526E-3 6.283185212E-4 -2.268928074E-4
5.947882674E0 2.111848444E-3 3.909537569E-3 -4.363323096E-4
5.951882674E0 1.518436475E-3 5.969026126E-3 -3.316125658E-4
5.955882674E0 -7.330382941E-4 6.056292448E-3 -9.075712296E-4
5.959882674E0 -4.188790335E-4 4.118977115E-3 -1.570796303E-4
5.963882674E0 4.014257283E-4 0.000000000E0 -5.585053586E-4
5.967882674E0 4.712388909E-4 -2.705260413E-3 -5.235987483E-4
5.971882674E0 1.919862116E-4 -3.577925032E-3 -2.094395168E-4
5.975882674E0 -7.679448463E-4 -2.600540640E-3 1.570796303E-4
5.979882674E0 -5.759586347E-4 -1.431170036E-3 -3.316125658E-4
5.983882674E0 -5.235987483E-4 -3.839724232E-4 2.792526793E-4
5.987882674E0 -8.203047328E-4 -5.585053586E-4 0.000000000E0
5.991882674E0 -2.094394993E-3 -1.954768784E-3 -1.117010717E-3
5.995882674E0 -1.221730490E-3 -3.228859045E-3 -1.117010717E-3
5.999882674E0 -8.726646047E-5 -3.263765713E-3 -3.665191471E-4
6.003882674E0 3.490658492E-5 -4.014257283E-4 -1.745329209E-4
6.007882674E0 5.235987483E-4 3.141592606E-4 -5.759586347E-4
6.011882674E0 1.553343027E-3 8.203047328E-4 -6.632251316E-4
6.015882674E0 1.378810150E-3 1.553343027E-3 -2.443460980E-4
6.019882674E0 8.726646192E-4 1.134464052E-3 -1.396263397E-4
6.023882674E0 1.186823938E-3 7.330382941E-4 -1.047197584E-4
6.027882674E0 6.806784077E-4 1.745329209E-4 -1.047197584E-4
6.031882674E0 8.726646047E-5 -7.155850180E-4 -1.047197584E-4
6.035882674E0 6.806784077E-4 -1.692969352E-3 1.919862116E-4
6.039882674E0 2.042035107E-3 -3.159045940E-3 5.759586347E-4
6.043882674E0 3.159045940E-3 -4.747295752E-3 3.665191471E-4
6.047882674E0 3.892084118E-3 -1.850049011E-3 3.141592606E-4
6.051882674E0 3.193952609E-3 -1.919862116E-4 1.396263397E-4
6.055882674E0 1.186823938E-3 2.042035107E-3 8.552113432E-4
6.059882674E0 6.806784077E-4 3.665191354E-3 2.967059845E-4
6.063882674E0 -1.919862116E-4 4.101523664E-3 0.000000000E0
6.067882674E0 -2.391101094E-3 1.797689125E-3 2.094395168E-4
6.071882674E0 -3.106686054E-3 -4.363323096E-4 1.221730490E-4
6.075882674E0 -2.984513063E-3 -2.373647876E-3 -1.082104165E-3
6.079882674E0 -1.466076588E-3 -3.787364578E-3 -1.117010717E-3
6.083882674E0 -2.967059845E-4 -2.495820867E-3 -8.203047328E-4
6.087882674E0 1.221730490E-4 -6.632251316E-4 -2.792526793E-4
6.091882674E0 1.745329238E-3 2.967059612E-3 -1.396263397E-4
6.095882674E0 2.478367416E-3 4.066617228E-3 -1.047197584E-4
6.099882674E0 1.919862116E-3 5.253441166E-3 -1.047197584E-4
6.103882674E0 7.155850180E-4 5.113814492E-3 3.316125658E-4
6.107882674E0 -3.316125658E-4 1.919862116E-3 0.000000000E0
6.111882674E0 -7.679448463E-4 -1.902408898E-3 -6.981316983E-5
6.115882674E0 -4.188790335E-4 -5.323254038E-3 -8.726646047E-5
6.119882674E0 -3.490658492E-5 -6.824237294E-3 -8.552113432E-4
6.123882674E0 3.490658419E-4 -5.846852902E-3 -4.363323096E-4
6.127882674E0 1.570796303E-4 -1.378810150E-3 -1.919862116E-4
6.131882674E0 2.443460980E-4 3.228859045E-3 1.570796303E-4
6.135882674E0 -6.108652451E-4 6.841690745E-3 1.047197584E-4
6.139882674E0 -8.726646047E-5 6.579891313E-3 4.014257283E-4
6.143884237E0 -1.047197584E-4 4.555309191E-3 -7.155850180E-4
6.147882674E0 3.490658492E-5 7.155850180E-4 -4.188790335E-4
6.151882674E0 -6.981316983E-5 -2.076941775E-3 -1.745329209E-4
6.155882674E0 4.886921961E-4 -3.106686054E-3 -4.188790335E-4
6.159882674E0 1.535889693E-3 -3.525565146E-3 -3.316125658E-4
6.163888924E0 2.879793290E-3 -3.176499158E-3 -1.570796303E-4
6.167882674E0 1.710422686E-3 -2.495820867E-3 6.283185212E-4
6.171882674E0 2.007128671E-3 -8.028514567E-4 2.268928074E-4
6.175882674E0 1.047197497E-3 -2.094395168E-4 2.792526793E-4
6.179882674E0 6.283185212E-4 -6.981316983E-5 1.640609466E-3
6.183882674E0 5.235987483E-4 -1.221730490E-3 6.457717973E-4
6.187882674E0 -8.726646047E-5 -3.490658477E-3 8.726646047E-5
6.191882674E0 6.283185212E-4 -3.926991019E-3 -5.235987919E-5
6.195882674E0 2.338741207E-3 -2.076941775E-3 5.061454722E-4
6.199882674E0 9.773843922E-4 -1.605702913E-3 3.490658419E-4
6.203882674E0 1.675516134E-3 -1.221730490E-4 6.108652451E-4
6.207882674E0 6.457717973E-4 4.014257283E-4 -6.981316983E-5
6.211882674E0 3.839724232E-4 -6.457717973E-4 1.919862116E-4
6.215882674E0 9.075712296E-4 -4.991641734E-3 4.188790335E-4
6.219882674E0 -2.792526793E-4 -5.829399452E-3 2.129301662E-3
6.223882674E0 -4.537856148E-4 -5.131267942E-3 1.972222002E-3
6.227882674E0 -1.099557383E-3 -4.206243437E-3 5.759586347E-4
6.231882674E0 1.274090377E-3 -3.368485486E-3 6.981316983E-5
6.235882674E0 1.448623254E-3 -2.548180753E-3 2.268928074E-4
6.239882674E0 1.186823938E-3 -5.235987483E-4 1.029744279E-3
6.243882674E0 2.635447076E-3 1.500983140E-3 1.745329209E-4
6.247882674E0 2.862340072E-3 3.071779385E-3 -1.745329246E-5
6.251882674E0 1.099557383E-3 8.150687441E-3 1.117010717E-3
6.255882674E0 9.424777818E-4 1.265363675E-2 3.490658419E-4
6.259882674E0 1.570796303E-4 1.171115879E-2 7.504915702E-4
6.263882674E0 -3.490658492E-5 5.445427261E-3 2.617993741E-4
6.267882674E0 1.553343027E-3 -2.792526735E-3 0.000000000E0
6.271882674E0 2.426007763E-3 -9.023352526E-3 2.094395168E-4
6.275882674E0 3.857177682E-3 -1.003564335E-2 5.759586347E-4
6.279882674E0 3.630284918E-3 -5.794493016E-3 6.981316983E-5
6.283882674E0 3.560471581E-3 2.827433404E-3 -3.490658419E-4
6.287882674E0 3.839724232E-4 1.096066739E-2 -7.679448463E-4
6.291882674E0 -2.076941775E-3 1.263618376E-2 -2.792526793E-4
6.295882674E0 -1.972222002E-3 7.190756500E-3 2.967059845E-4
6.299882674E0 -3.298672382E-3 -9.948377265E-4 0.000000000E0
6.303882674E0 -7.853981806E-4 -7.801621687E-3 -5.235987483E-4
6.307882674E0 7.504915702E-4 -9.564404376E-3 -2.094395168E-4
6.311882674E0 1.919862116E-3 -7.470009383E-3 -1.221730490E-4
6.315882674E0 2.827433404E-3 -3.909537569E-3 -1.047197584E-4
6.319882674E0 9.424777818E-4 2.111848444E-3 3.316125658E-4
6.323882674E0 -1.029744279E-3 6.859143730E-3 -4.363323096E-4
6.327882674E0 -2.897246508E-3 4.782202188E-3 -1.919862116E-4
6.331882674E0 -3.543018363E-3 -4.014257283E-4 -1.221730490E-4
6.335882674E0 -2.513274085E-3 -5.532693584E-3 -1.047197584E-4
6.339882674E0 -1.029744279E-3 -6.876597181E-3 -1.047197584E-4
6.343882674E0 3.839724232E-4 -5.707226694E-3 -1.047197584E-4
6.347882674E0 2.129301662E-3 -3.612831468E-3 -1.047197584E-4
6.351882674E0 3.019419499E-3 -1.256637042E-3 -1.047197584E-4
6.355882674E0 4.014257342E-3 -3.316125658E-4 -1.047197584E-4
6.359882674E0 1.710422686E-3 1.919862116E-4 1.082104165E-3
6.363882674E0 1.099557383E-3 1.745329209E-4 3.490658419E-4
6.367882674E0 5.061454722E-4 3.490658492E-5 9.075712296E-4
6.371882674E0 -2.443460980E-4 -4.537856148E-4 4.537856148E-4
6.375882674E0 -1.186823938E-3 -1.221730490E-4 1.919862116E-4
6.379882674E0 -8.726646047E-5 -3.490658492E-5 -1.745329246E-5
6.383882674E0 1.082104165E-3 -1.745329209E-4 -6.981316983E-5
6.387882674E0 8.028514567E-4 -5.061454722E-4 -3.839724232E-4
6.391882674E0 1.326450263E-3 -1.937315450E-3 -4.712388909E-4
6.395882674E0 2.356194425E-3 -2.321287990E-3 -5.235987919E-5
6.399882674E0 1.727875904E-3 -3.316125600E-3 -8.726646047E-5
6.403882674E0 1.413716702E-3 -1.780235791E-3 -8.726646047E-5
6.407882674E0 2.792526793E-4 -2.129301662E-3 -4.014257283E-4
6.411882674E0 2.792526793E-4 -5.585053586E-4 -3.316125658E-4
6.415882674E0 1.396263397E-4 -4.537856148E-4 -1.570796303E-4
6.419882674E0 -1.919862116E-4 -1.029744279E-3 -1.047197584E-4
6.423885799E0 1.745329246E-5 -8.726646192E-4 -1.047197584E-4
6.427885799E0 2.094395168E-4 -9.948377265E-4 -1.047197584E-4
6.431885799E0 2.617993741E-4 -4.188790335E-4 -4.014257283E-4
6.435882674E0 5.934119690E-4 -8.726646192E-4 -3.316125658E-4
6.439882674E0 2.024581889E-3 -3.839724232E-4 -1.570796303E-4
6.443882674E0 1.186823938E-3 1.745329209E-4 -4.188790335E-4
6.447882674E0 -2.094395168E-4 6.283185212E-4 -7.853981806E-4
6.451882674E0 2.967059845E-4 1.396263397E-4 -2.792526793E-4
6.455882674E0 0.000000000E0 -2.617993741E-4 -1.396263397E-4
6.459882674E0 3.665191471E-4 -8.203047328E-4 -4.014257283E-4
6.463882674E0 1.204277156E-3 -5.235987483E-4 -6.283185212E-4
6.467882674E0 8.377580671E-4 0.000000000E0 -3.839724232E-4
6.471884237E0 1.623156248E-3 -1.570796303E-4 -1.745329209E-4
6.475882674E0 1.850049011E-3 -5.235987919E-5 3.141592606E-4
6.479882674E0 1.902408898E-3 4.188790335E-4 2.967059845E-4
6.483882674E0 -3.490658492E-5 8.726646047E-5 1.396263397E-4
6.487882674E0 8.028514567E-4 -8.726646192E-4 -3.490658492E-5
6.491882674E0 1.221730490E-4 -1.448623254E-3 -3.839724232E-4
6.495882674E0 4.014257283E-4 -2.495820867E-3 2.617993741E-4
6.499882674E0 4.712388909E-4 -1.710422686E-3 2.792526793E-4
6.503882674E0 1.239183708E-3 -6.108652451E-4 7.330382941E-4
6.507882674E0 1.291543595E-3 -1.570796303E-4 5.585053586E-4
6.511882674E0 1.151917269E-3 -5.235987919E-5 2.094395168E-4
6.515882674E0 1.256637042E-3 -7.679448463E-4 -1.570796303E-4
6.519882674E0 4.014257283E-4 -3.665191471E-4 -2.617993741E-4
6.523882674E0 1.570796303E-4 -1.012290944E-3 -5.934119690E-4
6.527882674E0 1.047197584E-4 -7.155850180E-4 -3.839724232E-4
6.531882674E0 -1.919862116E-4 -5.235987919E-5 -1.745329209E-4
6.535882674E0 -5.759586347E-4 2.617993741E-4 -1.221730490E-4
6.539882674E0 5.061454722E-4 5.235987919E-5 -1.047197584E-4
6.543882674E0 1.099557383E-3 -7.504915702E-4 -1.047197584E-4
6.547882674E0 6.457717973E-4 -1.553343027E-3 1.919862116E-4
6.551882674E0 5.235987483E-4 -1.623156248E-3 1.221730490E-4
6.555882674E0 9.599310579E-4 -2.234021435E-3 -3.490658492E-5
6.559882674E0 6.108652451E-4 -1.186823938E-3 -8.726646047E-5
6.563888924E0 5.235987483E-4 -1.745329246E-5 -8.726646047E-5
6.567882674E0 1.396263367E-3 7.155850180E-4 -1.047197584E-4
6.571882674E0 7.330382941E-4 -1.221730490E-4 -1.047197584E-4
6.575882674E0 -3.490658492E-5 -3.316125658E-4 -1.047197584E-4
6.579882674E0 -8.726646047E-5 -5.410520826E-4 3.490658492E-5
6.583884237E0 6.457717973E-4 -5.934119690E-4 -5.061454722E-4
6.587882674E0 -5.235987919E-5 -6.108652451E-4 -3.490658419E-4
6.591882674E0 3.490658419E-4 -1.064650831E-3 7.155850180E-4
6.595882674E0 7.504915702E-4 -4.363323096E-4 1.047197584E-4
6.599882674E0 1.169370604E-3 -5.759586347E-4 -3.490658492E-5
6.603882674E0 9.599310579E-4 -1.204277156E-3 -8.726646047E-5
6.607882674E0 7.679448463E-4 -6.283185212E-4 -8.726646047E-5
6.611882674E0 1.012290944E-3 1.047197584E-4 -1.047197584E-4
6.615882674E0 1.745329209E-4 1.204277156E-3 -1.047197584E-4
6.619882674E0 -1.745329246E-5 5.934119690E-4 -1.047197584E-4
6.623882674E0 3.490658419E-4 -8.901178953E-4 -1.047197584E-4
6.627882674E0 1.204277156E-3 -1.151917269E-3 6.283185212E-4
6.631882674E0 1.727875904E-3 -2.111848444E-3 3.839724232E-4
6.635882674E0 1.570796361E-3 -1.762782573E-3 -1.221730490E-4
6.639882674E0 1.972222002E-3 -4.712388909E-4 -1.047197584E-4
6.643882674E0 1.186823938E-3 -1.221730490E-4 -1.047197584E-4
6.647882674E0 6.632251316E-4 -3.490658492E-5 6.283185212E-4
6.651882674E0 5.410520826E-4 1.308996929E-3 2.268928074E-4
6.655882674E0 2.094395168E-4 7.853981806E-4 0.000000000E0
6.659882674E0 -1.745329209E-4 1.745329209E-4 -6.981316983E-5
6.663882674E0 -2.617993741E-4 3.490658492E-5 -8.726646047E-5
6.667882674E0 -7.504915702E-4 -2.967059845E-4 3.316125658E-4
6.671882674E0 1.745329246E-5 -6.806784077E-4 0.000000000E0
6.675882674E0 1.117010717E-3 -1.082104165E-3 -6.981316983E-5
6.679882674E0 1.256637042E-3 -2.251474652E-3 1.919862116E-4
6.683882674E0 9.948377265E-4 -2.094394993E-3 -1.570796303E-4
6.687882674E0 7.679448463E-4 -1.151917269E-3 -5.585053586E-4
6.691882674E0 1.047197584E-4 -1.570796303E-4 -3.665191471E-4
6.695882674E0 -3.490658419E-4 1.448623254E-3 -1.745329209E-4
6.699882674E0 4.188790335E-4 5.061454722E-4 -1.221730490E-4
6.703882674E0 1.221730490E-3 1.047197584E-4 -5.585053586E-4
6.707882674E0 6.806784077E-4 -2.792526793E-4 -2.094395168E-4
6.711882674E0 3.839724232E-4 -1.727875904E-3 -1.221730490E-4
6.715882674E0 4.712388909E-4 -1.221730490E-3 3.316125658E-4
6.719882674E0 4.886921961E-4 -2.129301662E-3 4.537856148E-4
6.723882674E0 4.886921961E-4 -1.308996929E-3 3.490658492E-5
6.727882674E0 1.919862116E-4 -1.710422686E-3 -5.235987919E-5
6.731882674E0 2.617993741E-4 1.396263397E-4 -8.726646047E-5
6.735882674E0 -1.570796303E-4 1.745329209E-4 -8.726646047E-5
6.739882674E0 6.108652451E-4 1.745329246E-5 -1.047197584E-4
6.743882674E0 1.274090377E-3 0.000000000E0 3.316125658E-4
6.747882674E0 6.981316837E-4 5.759586347E-4 2.967059845E-4
6.751882674E0 5.410520826E-4 0.000000000E0 1.396263397E-4
6.755882674E0 5.061454722E-4 -1.204277156E-3 6.981316837E-4
6.759882674E0 4.886921961E-4 -7.679448463E-4 5.585053586E-4
6.763882674E0 3.490658492E-5 -6.632251316E-4 2.094395168E-4
6.767882674E0 -3.665191471E-4 -1.082104165E-3 -1.745329246E-5
6.771882674E0 1.047197584E-4 -4.363323096E-4 -6.981316983E-5
6.775882674E0 4.014257283E-4 -1.221730490E-4 -8.726646047E-5
6.779882674E0 4.712388909E-4 -3.490658492E-5 -8.726646047E-5
6.783882674E0 4.886921961E-4 -1.745329246E-5 -1.047197584E-4
6.787882674E0 4.886921961E-4 -1.745329246E-5 1.919862116E-4
6.791882674E0 -2.443460980E-4 -1.221730490E-3 1.221730490E-4
6.795882674E0 1.396263397E-4 -1.518436475E-3 -3.490658492E-5
6.799882674E0 2.443460980E-4 -1.605702913E-3 -8.726646047E-5
6.803882674E0 2.792526793E-4 -4.188790335E-4 1.919862116E-4
6.807882674E0 2.792526793E-4 -1.221730490E-4 1.221730490E-4
6.811882674E0 0.000000000E0 -3.490658492E-5 -3.490658492E-5
6.815882674E0 3.665191471E-4 -1.745329246E-5 -8.726646047E-5
6.819882674E0 4.537856148E-4 -3.141592606E-4 -8.726646047E-5
6.823882674E0 4.886921961E-4 -1.448623254E-3 -1.047197584E-4
6.827882674E0 9.424777818E-4 -8.377580671E-4 -1.047197584E-4
6.831882674E0 1.658062800E-3 -3.839724232E-4 6.283185212E-4
6.835882674E0 1.850049011E-3 -1.047197584E-4 2.268928074E-4
6.839882674E0 2.042035107E-3 -1.919862116E-4 0.000000000E0
6.843882674E0 2.111848444E-3 6.806784077E-4 -6.981316983E-5
6.847882674E0 9.075712296E-4 4.537856148E-4 1.919862116E-4
6.851882674E0 1.396263397E-4 -7.853981806E-4 1.221730490E-4
6.855882674E0 -3.490658492E-5 -2.164208330E-3 -3.490658492E-5
6.859882674E0 3.490658419E-4 -1.326450263E-3 3.490658419E-4
6.863882674E0 4.537856148E-4 -3.490658419E-4 -2.792526793E-4
6.867882674E0 3.490658492E-5 -1.047197584E-4 -2.967059845E-4
6.871882674E0 3.665191471E-4 -7.853981806E-4 4.363323096E-4
6.875882674E0 4.537856148E-4 -3.665191471E-4 6.283185212E-4
6.879882674E0 4.886921961E-4 -1.047197584E-4 6.806784077E-4
6.883882674E0 3.490658492E-5 -2.740166849E-3 5.410520826E-4
6.887882674E0 -5.061454722E-4 -2.373647876E-3 5.235987919E-5
6.891882674E0 -2.094395168E-4 -1.832595677E-3 6.806784077E-4
6.895882674E0 2.967059845E-4 -1.535889693E-3 6.981316837E-4
6.899882674E0 4.363323096E-4 -1.012290944E-3 8.726646047E-5
6.903882674E0 4.712388909E-4 -2.617993741E-4 2.443460980E-4
6.907882674E0 4.886921961E-4 6.632251316E-4 -1.570796303E-4
6.911882674E0 4.886921961E-4 7.504915702E-4 -2.617993741E-4
6.915882674E0 3.490658492E-5 -1.047197584E-4 -1.396263397E-4
6.919882674E0 -6.632251316E-4 -1.919862116E-4 3.316125658E-4
6.923882674E0 3.316125658E-4 -5.061454722E-4 -2.792526793E-4
6.927882674E0 9.075712296E-4 -4.363323096E-4 0.000000000E0
6.931882674E0 8.901178953E-4 -1.186823938E-3 6.981316983E-5
6.935882674E0 7.504915702E-4 -3.141592606E-4 -5.235987919E-5
6.939882674E0 5.585053586E-4 -5.410520826E-4 -8.726646047E-5
6.943882674E0 9.599310579E-4 -1.797689125E-3 -8.726646047E-5
6.947882674E0 6.108652451E-4 -2.129301662E-3 6.457717973E-4
6.951882674E0 1.117010717E-3 -1.780235791E-3 2.268928074E-4
6.955882674E0 6.632251316E-4 -1.518436475E-3 0.000000000E0
6.959882674E0 -5.061454722E-4 -7.155850180E-4 -6.981316983E-5
6.963888924E0 -5.235987919E-5 -1.919862116E-4 -8.726646047E-5
6.967882674E0 4.886921961E-4 -5.235987919E-5 -4.014257283E-4
6.971882674E0 6.457717973E-4 -3.141592606E-4 -3.316125658E-4
6.975882674E0 5.235987483E-4 -1.448623254E-3 -1.570796303E-4
6.979882674E0 5.235987919E-5 -5.410520826E-4 -1.047197584E-4
6.983882674E0 1.884955564E-3 -1.396263397E-4 -1.047197584E-4
6.987882674E0 1.605702913E-3 -3.490658419E-4 -1.047197584E-4
6.991882674E0 1.082104165E-3 -2.443460980E-4 -1.047197584E-4
6.995882674E0 8.028514567E-4 3.665191471E-4 -4.014257283E-4
6.999882674E0 2.792526793E-4 6.981316983E-5 1.047197584E-4
7.003882674E0 2.792526793E-4 4.537856148E-4 -3.490658492E-5
7.007882674E0 7.330382941E-4 1.047197584E-4 3.490658419E-4
7.011882674E0 5.585053586E-4 -1.221730490E-4 0.000000000E0
7.015882674E0 5.235987919E-5 9.948377265E-4 -5.235987483E-4
7.019882674E0 -2.094395168E-4 2.443460980E-4 -2.094395168E-4
7.023882674E0 -1.221730490E-4 3.490658492E-5 4.537856148E-4
7.027882674E0 4.712388909E-4 -7.504915702E-4 3.316125658E-4
7.031882674E0 -2.443460980E-4 -2.164208330E-3 0.000000000E0
7.035882674E0 2.967059845E-4 -2.530727303E-3 -6.981316983E-5
7.039882674E0 4.363323096E-4 -1.727875904E-3 -8.726646047E-5
7.043882674E0 4.712388909E-4 -1.064650831E-3 3.316125658E-4
7.047882674E0 3.490658492E-5 0.000000000E0 0.000000000E0
7.051882674E0 6.981316983E-5 8.901178953E-4 -2.268928074E-4
7.055882674E0 2.268928074E-4 6.632251316E-4 0.000000000E0
7.059882674E0 1.221730490E-4 7.504915702E-4 3.665191471E-4
7.063882674E0 2.443460980E-4 -1.047197584E-4 -2.792526793E-4
7.067882674E0 4.188790335E-4 -2.146754880E-3 -2.967059845E-4
7.071882674E0 1.221730490E-3 -2.076941775E-3 -1.570796303E-4
7.075882674E0 2.042035107E-3 -2.356194425E-3 3.316125658E-4
7.079882674E0 1.500983140E-3 -6.283185212E-4 -7.330382941E-4
7.083882674E0 1.204277156E-3 1.221730490E-4 -4.188790335E-4
7.087882674E0 3.839724232E-4 1.972222002E-3 -4.712388909E-4
7.091882674E0 7.679448463E-4 2.007128671E-3 -3.490658419E-4
7.095882674E0 1.012290944E-3 6.457717973E-4 -1.570796303E-4
7.099882674E0 1.535889693E-3 -1.343903481E-3 1.745329209E-4
7.103882674E0 1.064650831E-3 -9.599310579E-4 1.047197584E-4
7.107882674E0 1.692969352E-3 -1.308996929E-3 -3.490658492E-5
7.111882674E0 8.028514567E-4 -1.553343027E-3 -8.726646047E-5
7.115882674E0 5.759586347E-4 -2.617993741E-4 -8.726646047E-5
7.119882674E0 -3.665191471E-4 5.061454722E-4 -5.410520826E-4
7.123882674E0 -7.679448463E-4 1.047197584E-4 -5.061454722E-4
7.127882674E0 -1.221730490E-4 -2.792526793E-4 -3.665191471E-4
7.131882674E0 -1.047197584E-4 -6.806784077E-4 -1.745329246E-5
7.135882674E0 1.745329209E-4 -1.082104165E-3 5.235987919E-5
7.139882674E0 1.012290944E-3 -7.504915702E-4 8.726646047E-5
7.143884237E0 9.250245057E-4 8.726646047E-5 -5.235987919E-5
7.147882674E0 1.570796303E-4 1.570796303E-4 -8.726646047E-5
7.151882674E0 1.466076588E-3 1.745329246E-5 -8.726646047E-5
7.155882674E0 1.186823938E-3 4.363323096E-4 -1.047197584E-4
7.159882674E0 9.773843922E-4 8.726646047E-5 -1.047197584E-4
7.163882674E0 3.141592606E-4 -2.792526793E-4 1.919862116E-4
7.167882674E0 8.901178953E-4 -2.181661548E-3 5.759586347E-4
7.171882674E0 1.047197497E-3 -2.687806962E-3 6.981316983E-5
7.175884237E0 6.283185212E-4 -1.623156248E-3 -5.235987919E-5
7.179882674E0 8.203047328E-4 -4.188790335E-4 -5.410520826E-4
7.183882674E0 7.330382941E-4 3.141592606E-4 -6.632251316E-4
7.187882674E0 5.585053586E-4 8.203047328E-4 -2.443460980E-4
7.191882674E0 -6.981316983E-5 1.396263367E-3 -1.396263397E-4
7.195882674E0 -4.014257283E-4 3.490658419E-4 3.316125658E-4
7.199882674E0 -3.490658492E-5 -1.413716702E-3 0.000000000E0
7.203882674E0 1.919862116E-4 -2.635447076E-3 -6.981316983E-5
7.207882674E0 1.221730490E-4 -2.356194425E-3 -8.726646047E-5
7.211882674E0 6.981316837E-4 -1.221730490E-3 -8.726646047E-5
7.215882674E0 5.410520826E-4 -4.712388909E-4 3.316125658E-4
7.219882674E0 5.061454722E-4 1.047197497E-3 0.000000000E0
7.223882674E0 4.886921961E-4 1.466076588E-3 -3.665191471E-4
7.227882674E0 4.886921961E-4 -3.665191471E-4 -3.141592606E-4
7.231882674E0 4.886921961E-4 -1.308996929E-3 -1.570796303E-4
7.235882674E0 7.853981806E-4 -3.368485486E-3 -1.047197584E-4
7.239882674E0 1.466076588E-3 -1.640609466E-3 -1.047197584E-4
7.243882674E0 1.343903481E-3 -1.029744279E-3 -4.014257283E-4
7.247882674E0 1.169370604E-3 -2.792526793E-4 -3.316125658E-4
7.251882674E0 6.981316983E-5 6.632251316E-4 -1.570796303E-4
7.255882674E0 9.773843922E-4 1.361356815E-3 3.141592606E-4
7.259882674E0 1.745329209E-4 1.535889693E-3 0.000000000E0
7.263882674E0 1.012290944E-3 8.726646047E-5 -6.981316983E-5
7.267882674E0 1.745329209E-4 -1.937315450E-3 1.919862116E-4
7.271882674E0 -1.745329209E-4 -2.478367416E-3 -3.141592606E-4
7.275882674E0 3.141592606E-4 -9.599310579E-4 -1.570796303E-4
7.279882674E0 0.000000000E0 -7.155850180E-4 3.141592606E-4
7.283882674E0 6.632251316E-4 9.948377265E-4 0.000000000E0
7.287882674E0 8.726646047E-5 1.448623254E-3 -6.981316983E-5
7.291882674E0 -5.061454722E-4 1.117010717E-3 -8.726646047E-5
7.295882674E0 -5.235987919E-5 7.155850180E-4 -5.410520826E-4
7.299884237E0 -3.839724232E-4 -8.726646192E-4 -2.094395168E-4
7.303882674E0 1.047197584E-4 -2.042035107E-3 -1.221730490E-4
7.307882674E0 5.410520826E-4 -1.588249579E-3 3.316125658E-4
7.311882674E0 3.490658419E-4 -5.759586347E-4 0.000000000E0
7.315882674E0 -5.759586347E-4 4.188790335E-4 -3.665191471E-4
7.319882674E0 -8.726646047E-5 4.014257283E-4 -3.141592606E-4
7.323882674E0 -1.047197584E-4 8.726646047E-5 -1.064650831E-3
7.327882674E0 6.283185212E-4 -2.792526793E-4 -3.490658419E-4
7.331882674E0 3.839724232E-4 -1.134464052E-3 -1.570796303E-4
7.335882674E0 7.679448463E-4 -1.047197497E-3 -1.221730490E-4
7.339882674E0 1.047197584E-4 -8.901178953E-4 -1.047197584E-4
7.343882674E0 6.981316837E-4 -9.948377265E-4 -1.047197584E-4
7.347882674E0 4.014257283E-4 -4.188790335E-4 -5.585053586E-4
7.351882674E0 1.064650831E-3 -2.617993741E-4 -2.094395168E-4
7.355882674E0 7.853981806E-4 3.490658419E-4 -1.221730490E-4
7.359882674E0 5.759586347E-4 -2.094395168E-4 -1.047197584E-4
7.363888924E0 1.413716702E-3 -6.981316983E-5 -1.047197584E-4
7.367882674E0 2.094394993E-3 -7.679448463E-4 -1.047197584E-4
7.371882674E0 9.075712296E-4 -2.024581889E-3 -1.047197584E-4
7.375882674E0 5.934119690E-4 -6.806784077E-4 -1.047197584E-4
7.379882674E0 5.235987483E-4 -1.919862116E-4 -5.410520826E-4
7.383882674E0 8.028514567E-4 5.235987483E-4 -2.094395168E-4
7.387882674E0 7.155850180E-4 8.726646192E-4 -1.221730490E-4
7.391882674E0 6.981316837E-4 6.632251316E-4 -1.047197584E-4
7.395882674E0 4.014257283E-4 -1.396263397E-4 -1.047197584E-4
7.399882674E0 -7.155850180E-4 -1.553343027E-3 -1.047197584E-4
7.403882674E0 4.712388909E-4 -1.466076588E-3 3.316125658E-4
7.407882674E0 3.490658492E-5 -1.151917269E-3 -2.792526793E-4
7.411882674E0 3.665191471E-4 -2.967059845E-4 -2.967059845E-4
7.415882674E0 4.537856148E-4 6.457717973E-4 -4.537856148E-4
7.419882674E0 -2.443460980E-4 2.967059845E-4 -3.490658419E-4
7.423882674E0 -1.047197497E-3 5.235987919E-5 2.792526793E-4
7.427882674E0 -3.490658419E-4 -4.363323096E-4 0.000000000E0
7.431882674E0 1.221730490E-4 -1.221730490E-4 -6.981316983E-5
7.435882674E0 4.014257283E-4 -4.886921961E-4 -5.410520826E-4
7.439882674E0 1.221730490E-3 -2.792526793E-4 -2.094395168E-4
7.443882674E0 1.291543595E-3 5.235987919E-5 -4.188790335E-4
7.447882674E0 9.948377265E-4 0.000000000E0 2.443460980E-4
7.451882674E0 1.378810150E-3 0.000000000E0 2.792526793E-4
7.455882674E0 1.780235791E-3 -7.679448463E-4 -2.967059845E-4
7.459882674E0 8.203047328E-4 -8.028514567E-4 -2.967059845E-4
7.463882674E0 7.330382941E-4 -6.981316983E-5 -6.108652451E-4
7.467882674E0 5.585053586E-4 -1.745329209E-4 -2.268928074E-4
7.471882674E0 6.632251316E-4 6.806784077E-4 -1.396263397E-4
7.475882674E0 6.806784077E-4 3.141592606E-4 -1.047197584E-4
7.479882674E0 1.291543595E-3 5.235987919E-5 -4.014257283E-4
7.483882674E0 1.448623254E-3 -7.330382941E-4 -3.316125658E-4
7.487882674E0 1.186823938E-3 -1.553343027E-3 5.759586347E-4
7.491882674E0 2.635447076E-3 -8.726646192E-4 2.094395168E-4
7.495882674E0 2.251474652E-3 -8.377580671E-4 -3.141592606E-4
7.499882674E0 1.413716702E-3 -9.773843922E-4 -7.504915702E-4
7.503882674E0 4.363323096E-4 -1.012290944E-3 -7.155850180E-4
7.507882674E0 -5.585053586E-4 -1.919862116E-3 -2.617993741E-4
7.511882674E0 -1.274090377E-3 -1.867502346E-3 -1.396263397E-4
7.515882674E0 1.745329246E-5 -2.303834539E-3 -1.047197584E-4
7.519882674E0 1.274090377E-3 -1.570796303E-4 -1.047197584E-4
7.523882674E0 1.151917269E-3 9.948377265E-4 7.853981806E-4
7.527882674E0 8.203047328E-4 1.902408898E-3 1.221730490E-4
7.531882674E0 5.759586347E-4 7.679448463E-4 -3.316125658E-4
7.535882674E0 -3.665191471E-4 3.316125658E-4 -6.108652451E-4
7.539882674E0 -1.745329246E-5 -5.235987483E-4 -3.839724232E-4
7.543882674E0 -9.773843922E-4 -4.537856148E-4 -1.745329209E-4
7.547882674E0 -3.316125658E-4 -7.155850180E-4 -4.188790335E-4
7.551882674E0 -3.141592606E-4 -5.061454722E-4 -1.239183708E-3
7.555882674E0 5.759586347E-4 1.396263397E-4 -4.014257283E-4
7.559882674E0 6.632251316E-4 6.283185212E-4 -1.745329209E-4
7.563882674E0 2.443460980E-4 4.363323096E-4 -1.221730490E-4
7.567882674E0 -1.745329246E-5 6.981316837E-4 -1.047197584E-4
7.571882674E0 -2.268928074E-4 1.570796303E-4 -1.047197584E-4
7.575882674E0 5.934119690E-4 -2.617993741E-4 -4.014257283E-4
7.579882674E0 6.632251316E-4 2.094395168E-4 -6.283185212E-4
7.583882674E0 8.377580671E-4 -6.981316837E-4 -8.377580671E-4
7.587882674E0 7.330382941E-4 -3.490658492E-5 -1.500983140E-3
7.591882674E0 -1.745329209E-4 1.221730490E-4 -6.108652451E-4
7.595882674E0 9.075712296E-4 4.537856148E-4 5.235987919E-5
7.599882674E0 1.204277156E-3 1.047197584E-4 -2.094395168E-4
7.603882674E0 6.806784077E-4 -4.363323096E-4 -2.792526793E-4
7.607882674E0 -1.919862116E-4 -1.221730490E-4 -1.396263397E-4
7.611882674E0 1.570796303E-4 -3.490658492E-5 -1.047197584E-4
7.615882674E0 4.014257283E-4 5.585053586E-4 3.490658492E-5
7.619882674E0 7.679448463E-4 7.330382941E-4 6.981316983E-5
7.623882674E0 7.155850180E-4 1.745329246E-5 8.726646047E-5
7.627882674E0 5.410520826E-4 -5.934119690E-4 -5.235987919E-5
7.631882674E0 5.061454722E-4 -4.712388909E-4 -8.726646047E-5
7.635882674E0 4.886921961E-4 -1.937315450E-3 -8.726646047E-5
7.639882674E0 9.424777818E-4 -2.460914198E-3 -1.047197584E-4
7.643882674E0 -1.221730490E-4 -1.256637042E-3 -4.014257283E-4
7.647882674E0 4.712388909E-4 -1.745329209E-4 -3.316125658E-4
7.651882674E0 -4.014257283E-4 -5.235987919E-5 8.726646192E-4
7.655882674E0 -4.886921961E-4 -3.141592606E-4 9.075712296E-4
7.659882674E0 2.268928074E-4 -6.981316837E-4 1.570796303E-4
7.663882674E0 4.188790335E-4 -1.239183708E-3 -3.490658492E-5
7.667882674E0 1.745329246E-5 -6.283185212E-4 -5.235987483E-4
7.671882674E0 6.981316983E-5 -4.712388909E-4 -2.094395168E-4
7.675882674E0 5.235987483E-4 -2.792526793E-4 -5.759586347E-4
7.679882674E0 1.553343027E-3 1.850049011E-3 -2.268928074E-4
7.683882674E0 7.679448463E-4 1.518436475E-3 1.570796303E-4
7.687882674E0 5.585053586E-4 1.727875904E-3 -1.745329209E-4
7.691882674E0 9.599310579E-4 5.759586347E-4 -2.617993741E-4
7.695882674E0 6.108652451E-4 2.792526793E-4 -4.363323096E-4
7.699882674E0 3.665191471E-4 -9.948377265E-4 -3.316125658E-4
7.703882674E0 9.075712296E-4 -7.155850180E-4 -1.570796303E-4
7.707882674E0 7.504915702E-4 3.839724232E-4 -4.188790335E-4
7.711882674E0 8.552113432E-4 -5.235987919E-5 -1.745329209E-4
7.715882674E0 1.186823938E-3 -1.745329246E-5 -2.792526793E-4
7.719882674E0 9.773843922E-4 -1.745329246E-5 -1.396263397E-4
7.723882674E0 7.679448463E-4 -6.108652451E-4 -5.585053586E-4
7.727882674E0 8.552113432E-4 -1.378810150E-3 2.094395168E-4
7.731882674E0 1.396263397E-4 -3.665191471E-4 -4.712388909E-4
7.735882674E0 5.410520826E-4 -1.047197584E-4 -1.919862116E-4
7.739882674E0 8.028514567E-4 -3.490658492E-5 -1.221730490E-4
7.743882674E0 7.330382941E-4 -4.712388909E-4 -4.014257283E-4
7.747882674E0 5.585053586E-4 -1.221730490E-4 -3.316125658E-4
7.751882674E0 5.061454722E-4 2.443460980E-4 -1.570796303E-4
7.755882674E0 3.490658492E-5 -8.726646047E-5 -1.047197584E-4
7.759882674E0 6.981316983E-5 -1.745329209E-4 -1.047197584E-4
7.763882674E0 -5.235987919E-5 -9.599310579E-4 -1.047197584E-4
7.767882674E0 -5.410520826E-4 -2.617993741E-4 -8.552113432E-4
7.771882674E0 6.981316983E-5 3.665191471E-4 -4.537856148E-4
7.775882674E0 3.839724232E-4 5.235987483E-4 6.981316837E-4
7.779882674E0 1.221730490E-3 8.726646192E-4 1.047197584E-4
7.783882674E0 1.291543595E-3 3.490658419E-4 -3.490658492E-5
7.787882674E0 4.014257283E-4 6.981316983E-5 -8.726646047E-5
7.791882674E0 3.141592606E-4 -4.363323096E-4 -8.726646047E-5
7.795882674E0 4.363323096E-4 -4.188790335E-4 4.886921961E-4
7.799884237E0 7.853981806E-4 -1.623156248E-3 3.490658419E-4
7.803882674E0 -4.712388909E-4 -2.687806962E-3 0.000000000E0
7.807882674E0 8.726646047E-5 -1.762782573E-3 2.094395168E-4
7.811882674E0 -5.235987919E-5 -9.250245057E-4 1.221730490E-4
7.815882674E0 3.490658419E-4 -8.726646047E-5 -3.490658492E-5
7.819882674E0 4.537856148E-4 -4.886921961E-4 -8.726646047E-5
7.823882674E0 9.250245057E-4 -1.396263397E-4 -8.726646047E-5
7.827882674E0 0.000000000E0 4.014257283E-4 -1.047197584E-4
7.831882674E0 -5.235987483E-4 -3.490658419E-4 -1.047197584E-4
7.835882674E0 -6.981316983E-5 -1.047197584E-4 -5.410520826E-4
7.839882674E0 3.490658419E-4 -4.886921961E-4 -5.061454722E-4
7.843882674E0 1.204277156E-3 -8.901178953E-4 -1.570796361E-3
7.847882674E0 8.203047328E-4 -8.377580671E-4 -6.283185212E-4
7.851882674E0 5.759586347E-4 -6.806784077E-4 -6.806784077E-4
7.855882674E0 5.061454722E-4 2.443460980E-4 -2.443460980E-4
7.859882674E0 8.028514567E-4 5.235987919E-5 1.396263397E-4
7.863882674E0 2.792526793E-4 0.000000000E0 -1.745329209E-4
7.867882674E0 -1.047197497E-3 0.000000000E0 -5.759586347E-4
7.871882674E0 -2.094395168E-4 -1.745329246E-5 2.094395168E-4
7.875882674E0 3.141592606E-4 -1.745329246E-5 7.330382941E-4
7.879882674E0 4.363323096E-4 -3.141592606E-4 1.047197584E-4
7.883882674E0 1.745329209E-4 -5.410520826E-4 2.443460980E-4
7.887882674E0 2.617993741E-4 0.000000000E0 1.221730490E-4
7.891882674E0 1.221730490E-4 2.792526793E-4 4.014257283E-4
7.895882674E0 2.443460980E-4 -3.839724232E-4 1.745329246E-5
7.899882674E0 -3.141592606E-4 -5.585053586E-4 -5.235987483E-4
7.903882674E0 5.759586347E-4 -1.204277156E-3 6.806784077E-4
7.907882674E0 2.094395168E-4 -1.518436475E-3 -3.490658419E-4
7.911882674E0 4.188790335E-4 -5.585053586E-4 -1.570796303E-4
7.915882674E0 1.745329209E-4 -1.570796303E-4 3.141592606E-4
7.919882674E0 8.552113432E-4 2.268928074E-4 0.000000000E0
7.923882674E0 7.330382941E-4 1.396263367E-3 -6.981316983E-5
7.927882674E0 5.585053586E-4 3.490658492E-5 -8.726646047E-5
7.931882674E0 9.599310579E-4 0.000000000E0 -4.014257283E-4
7.935882674E0 6.108652451E-4 -2.967059845E-4 -3.316125658E-4
7.939882674E0 8.203047328E-4 -1.448623254E-3 -1.570796303E-4
7.943882674E0 1.186823938E-3 -1.588249579E-3 -1.047197584E-4
7.947882674E0 6.632251316E-4 -7.330382941E-4 -5.585053586E-4
7.951882674E0 5.410520826E-4 8.726646047E-5 6.981316983E-5
7.955882674E0 3.490658419E-4 4.537856148E-4 8.726646047E-5
7.959882674E0 1.570796303E-4 6.981316837E-4 2.443460980E-4
7.963882674E0 -4.886921961E-4 1.570796303E-4 -1.570796303E-4
7.967882674E0 -5.235987919E-5 1.745329246E-5 -1.012290944E-3
7.971882674E0 -5.410520826E-4 -2.967059845E-4 -4.886921961E-4
7.975882674E0 6.981316983E-5 -1.134464052E-3 8.726646047E-5
7.979882674E0 3.839724232E-4 -2.967059845E-4 -8.028514567E-4
7.983882674E0 1.570796303E-4 -8.726646047E-5 -2.792526793E-4
7.987882674E0 -6.283185212E-4 2.443460980E-4 -1.396263397E-4
7.991882674E0 1.919862116E-4 1.919862116E-4 -1.047197584E-4
7.995882674E0 1.221730490E-4 3.490658492E-5 -1.047197584E-4
7.999882674E0 -1.919862116E-4 -5.934119690E-4 6.283185212E-4
8.003882674E0 1.745329246E-5 -1.221730490E-3 2.268928074E-4
8.007882674E0 -2.268928074E-4 -1.675516134E-3 0.000000000E0
8.011882674E0 0.000000000E0 -2.967059845E-4 -6.981316983E-5
8.015882674E0 2.094395168E-4 -3.839724232E-4 -8.726646047E-5
8.019882674E0 4.188790335E-4 1.745329209E-4 -8.726646047E-5
8.023882674E0 1.745329209E-4 1.745329209E-4 -1.047197584E-4
8.027882674E0 2.617993741E-4 1.745329246E-5 -5.410520826E-4
8.031882674E0 4.363323096E-4 -9.075712296E-4 -5.061454722E-4
8.035882674E0 7.679448463E-4 -9.948377265E-4 -3.665191471E-4
8.039882674E0 1.466076588E-3 -4.188790335E-4 -6.108652451E-4
8.043882674E0 1.343903481E-3 1.745329209E-4 -5.235987483E-4
