"Time (s)" "Gyroscope x (rad/s)" "Gyroscope y (rad/s)" "Gyroscope z (rad/s)"
1.490379080E-1 -1.526639462E-1 2.434734255E-2 -1.394518018E-1
1.500379080E-1 -9.023351967E-2 -4.590216093E-3 6.832963973E-2
1.540379080E-1 -8.166395873E-2 6.747443229E-2 5.366887525E-2
1.580379080E-1 -4.256857932E-2 7.480481267E-2 3.778637946E-2
1.620379080E-1 8.726646192E-3 6.014404446E-2 2.190388180E-2
1.660379080E-1 4.904375225E-2 8.213519305E-2 1.090830751E-2
1.700379080E-1 7.714354992E-2 1.224522963E-1 -2.513274085E-3
1.740379080E-1 1.113520041E-1 1.273392290E-1 -1.308996929E-3
1.780379080E-1 1.394518018E-1 8.580038697E-2 -8.726646047E-5
1.820379080E-1 1.541125774E-1 1.616174914E-2 -2.530727303E-3
1.860379080E-1 1.504473835E-1 -4.002039880E-2 -8.726646047E-5
1.900379080E-1 1.089085415E-1 -6.201154739E-2 -1.308996929E-3
1.940379080E-1 9.044296294E-2 -5.234242231E-2 -3.612831468E-3
1.980410330E-1 3.738495335E-2 -4.860742018E-2 -5.811946467E-3
2.020379080E-1 -2.265437320E-2 -4.822344705E-2 3.228859045E-3
2.060379080E-1 -7.429866493E-2 -5.909684673E-2 1.237438433E-2
2.100379080E-1 -1.112647429E-1 -8.122762293E-2 2.378883772E-2
2.140379080E-1 -1.281246245E-1 -1.145285070E-1 3.625048697E-2
2.180410330E-1 -1.311614960E-1 -1.449146867E-1 4.598942399E-2
2.220379080E-1 -1.224522963E-1 -1.566258520E-1 5.138249323E-2
2.260379080E-1 -1.102524474E-1 -1.366418302E-1 5.743878707E-2
2.300379080E-1 -9.698794782E-2 -8.806931227E-2 6.084217876E-2
2.340379080E-1 -7.126179338E-2 -2.375393175E-2 5.886995420E-2
2.380379080E-1 -3.625048697E-2 2.794272080E-2 5.684537441E-2
2.420379080E-1 8.395033889E-3 7.120943069E-2 4.925319180E-2
2.460379080E-1 5.331980810E-2 1.032885835E-1 3.567453101E-2
2.500379080E-1 1.012989059E-1 1.167799830E-1 1.933824830E-2
2.540379080E-1 1.419825405E-1 1.046324894E-1 6.632251199E-3
2.580379080E-1 1.625250578E-1 8.592256159E-2 -5.078908056E-3
2.620379080E-1 1.551074088E-1 8.630653471E-2 -1.551597659E-2
2.660379080E-1 1.290670931E-1 9.276425093E-2 -2.591813914E-2
2.700379080E-1 9.440486133E-2 7.881906629E-2 -2.668608353E-2
2.740379080E-1 5.166174471E-2 3.197443113E-2 -2.206096239E-2
2.780379080E-1 1.010545623E-2 -1.279326342E-2 -1.483529899E-2
2.820379080E-1 -4.045673087E-2 -3.003711626E-2 -5.707226694E-3
2.860379080E-1 -8.166395873E-2 -4.441862926E-2 4.328416660E-3
2.900379080E-1 -1.052084491E-1 -8.759807795E-2 1.776745170E-2
2.940379080E-1 -1.164309159E-1 -1.385093331E-1 2.761110850E-2
2.980394700E-1 -1.219286993E-1 -1.507440805E-1 3.558726236E-2
3.020410330E-1 -1.205149814E-1 -1.226268336E-1 4.745550081E-2
3.060410330E-1 -1.106538773E-1 -7.897614688E-2 5.478588492E-2
3.100379080E-1 -8.777260780E-2 -3.897320107E-2 5.937610194E-2
3.140379080E-1 -4.824090004E-2 -1.740093343E-2 6.105161831E-2
3.180379080E-1 -5.759586347E-4 8.779006079E-3 5.155702680E-2
3.220379080E-1 3.937462717E-2 5.113814771E-2 3.356268257E-2
3.260379080E-1 7.733553648E-2 8.136724681E-2 1.171115879E-2
3.300379080E-1 1.156978756E-1 7.405432314E-2 -7.976154797E-3
3.340394700E-1 1.437802166E-1 4.033455998E-2 -1.973967440E-2
3.380379080E-1 1.481086463E-1 2.759365551E-2 -3.063052893E-2
3.420410330E-1 1.254542619E-1 4.670501128E-2 -4.009021446E-2
3.460379080E-1 8.594001085E-2 6.724753231E-2 -4.813618213E-2
3.500379080E-1 3.755948693E-2 6.447245926E-2 -5.127777159E-2
3.540379080E-1 -4.101523664E-3 4.267330095E-2 -5.030038953E-2
3.580379080E-1 -4.235913977E-2 1.651081443E-2 -4.551818594E-2
3.620379080E-1 -6.981316954E-2 -2.926917188E-2 -4.187044874E-2
3.660379080E-1 -8.403760195E-2 -7.752752304E-2 -3.295181692E-2
3.700379080E-1 -9.662142396E-2 -1.015781611E-1 -1.902408898E-2
3.740379080E-1 -1.008102149E-1 -9.278170019E-2 -1.101302728E-2
3.780379080E-1 -9.693558514E-2 -5.962044746E-2 -3.961897455E-3
3.820379080E-1 -7.471754402E-2 -3.782128543E-2 2.670353744E-3
3.860394700E-1 -3.579670191E-2 -4.178318381E-2 8.325220086E-3
3.900410330E-1 6.108652335E-3 -5.009094998E-2 9.651671164E-3
3.940379080E-1 4.550073296E-2 -3.735004738E-2 3.368485486E-3
3.980379080E-1 7.052875310E-2 -1.684242673E-2 -3.822271014E-3
4.020379080E-1 8.457865566E-2 -3.682644805E-3 -1.202531811E-2
4.060379080E-1 8.583529294E-2 1.944296807E-2 -1.132718660E-2
4.100394700E-1 6.962118298E-2 5.017821491E-2 -6.003932562E-3
4.140379080E-1 4.818854108E-2 6.771877408E-2 -8.063420653E-3
4.180379080E-1 2.576106042E-2 5.752605200E-2 -1.282817032E-2
4.220379080E-1 3.647738136E-3 4.309218004E-2 -1.513200440E-2
4.260379080E-1 -1.610938832E-2 3.197443113E-2 -1.408480667E-2
4.300379080E-1 -3.179989755E-2 8.290314116E-3 -1.062905509E-2
4.340379080E-1 -4.340633750E-2 -4.817108624E-3 -4.782202188E-3
4.380379080E-1 -5.321509019E-2 4.380776547E-3 4.415682983E-3
4.420379080E-1 -5.368632823E-2 1.361356769E-2 1.525417715E-2
4.460379080E-1 -4.115486518E-2 8.482299745E-3 2.108357660E-2
4.500379080E-1 -2.401573025E-2 6.963863503E-3 2.291617356E-2
4.540379080E-1 -6.457718089E-3 1.921607554E-2 1.961750165E-2
4.580379080E-1 1.284562331E-2 2.815216035E-2 9.581857361E-3
4.620379080E-1 3.700098023E-2 1.755801216E-2 -7.173303049E-3
4.660379080E-1 6.003932655E-2 -9.302604944E-3 -2.658136375E-2
4.700379080E-1 7.295475900E-2 -2.895501256E-2 -4.672246426E-2
4.740379080E-1 6.852162629E-2 -3.380702808E-2 -4.942772537E-2
4.780379080E-1 5.094616115E-2 -2.136282995E-2 -4.468042776E-2
4.820379080E-1 2.241002768E-2 1.012290944E-3 -4.134684801E-2
4.860379080E-1 -3.089232836E-3 4.764748737E-3 -3.790855035E-2
4.900379080E-1 -2.223549411E-2 -1.741838641E-2 -4.363323003E-2
4.940441580E-1 -3.804817796E-2 -4.492477328E-2 -5.146975815E-2
4.980379080E-1 -5.045747012E-2 -5.347688869E-2 -5.651376024E-2
5.020379080E-1 -5.761331692E-2 -4.951499030E-2 -5.333726108E-2
5.060379080E-1 -6.068509817E-2 -3.673918173E-2 -4.118977115E-2
5.100379080E-1 -6.178465486E-2 -5.131267942E-3 -2.598795295E-2
5.140379080E-1 -5.469861999E-2 3.338814899E-2 -8.464846760E-3
5.180379080E-1 -3.284709528E-2 5.370378122E-2 1.658062800E-3
5.220379080E-1 -1.082104165E-3 5.040510744E-2 6.405358203E-3
5.260379080E-1 3.382448107E-2 3.808308393E-2 9.599311277E-3
5.300379080E-1 6.190682948E-2 3.904301673E-2 4.869468510E-3
5.340379080E-1 8.066911995E-2 5.590289459E-2 -5.986479111E-3
5.380379080E-1 9.278170019E-2 4.890412465E-2 -2.371902391E-2
5.420379080E-1 1.030267850E-1 -7.853981806E-4 -5.167919770E-2
5.460379080E-1 1.007404029E-1 -5.745624006E-2 -7.419394702E-2
5.500379080E-1 6.810274720E-2 -5.682792142E-2 -7.660250366E-2
5.540379080E-1 4.921828397E-3 2.916445211E-2 -7.405432314E-2
5.580379080E-1 -4.906120524E-2 8.909905702E-2 -6.843435764E-2
5.620379080E-1 -6.916739792E-2 4.003785178E-2 -6.152285635E-2
5.660379080E-1 -6.550220400E-2 -6.743951887E-2 -6.003932655E-2
5.700379080E-1 -6.122614816E-2 -1.284911335E-1 -5.619960278E-2
5.740379080E-1 -6.522295624E-2 -1.192583442E-1 -4.825835302E-2
5.780379080E-1 -7.108726352E-2 -6.803293526E-2 -3.686135262E-2
5.820379080E-1 -7.337363809E-2 -1.069886796E-2 -1.569050923E-2
5.860379080E-1 -6.661921740E-2 3.586651757E-2 2.478367416E-3
5.900379080E-1 -3.881612420E-2 5.345943570E-2 8.883725852E-3
5.940379080E-1 1.396263367E-3 3.995058686E-2 6.649704650E-3
5.980379080E-1 4.141666368E-2 2.645919099E-2 -2.513274085E-3
6.020379080E-1 7.201228291E-2 3.031636961E-2 -1.694714651E-2
6.060379080E-1 9.218829125E-2 4.068362340E-2 -3.651228920E-2
6.100379080E-1 1.004611477E-1 3.736750036E-2 -6.059783325E-2
6.140504080E-1 9.044296294E-2 4.173082113E-2 -7.833037525E-2
6.180379080E-1 6.524040550E-2 6.244787946E-2 -7.977899909E-2
6.220379080E-1 3.562216833E-2 7.827802002E-2 -7.428121567E-2
6.260379080E-1 6.667157635E-3 6.901031733E-2 -6.578145921E-2
6.300379080E-1 -8.848818950E-3 2.597049996E-2 -5.572836101E-2
6.340379080E-1 -2.040289901E-2 -3.947934881E-2 -5.009094998E-2
6.380379080E-1 -3.576179594E-2 -5.825908855E-2 -5.087634921E-2
6.420379080E-1 -5.948081985E-2 -3.059562109E-2 -5.169665068E-2
6.460379080E-1 -6.691592187E-2 -1.986184716E-2 -4.694935679E-2
6.500379080E-1 -5.647885427E-2 -3.981095925E-2 -4.359832406E-2
6.540379080E-1 -4.173082113E-2 -5.530948564E-2 -3.565707803E-2
6.580379080E-1 -3.049090132E-2 -3.452261165E-2 -2.333505265E-2
6.620379080E-1 -2.244493365E-2 8.255407214E-3 -1.424188633E-2
6.660379080E-1 -8.464846760E-3 3.195697814E-2 -1.502728462E-2
6.700379080E-1 1.188569237E-2 3.057816811E-2 -2.427753061E-2
6.740379080E-1 3.284709528E-2 2.598795295E-2 -3.947934881E-2
6.780379080E-1 4.253367335E-2 3.321361542E-2 -5.429719388E-2
6.820379080E-1 4.731587693E-2 3.782128543E-2 -6.778858602E-2
6.860379080E-1 4.466297477E-2 3.089232743E-2 -7.326892018E-2
6.900379080E-1 3.703588620E-2 3.389429301E-2 -7.304202765E-2
6.940379080E-1 2.254965343E-2 3.649483621E-2 -6.890559942E-2
6.980379080E-1 8.988445625E-3 3.761184588E-2 -6.497860700E-2
7.020379080E-1 -5.078908056E-3 3.399901465E-2 -6.515314430E-2
7.060379080E-1 -1.312487572E-2 2.057743259E-2 -6.775368005E-2
7.100379080E-1 -1.731366664E-2 -1.431170036E-3 -6.948155910E-2
7.140379080E-1 -1.932079531E-2 -1.637118869E-2 -7.295475900E-2
7.180379080E-1 -2.028072625E-2 -2.312561311E-2 -7.161086053E-2
7.220379080E-1 -1.813396998E-2 -2.488839440E-2 -6.208136305E-2
7.260379080E-1 -1.680752076E-2 -1.752310619E-2 -4.738568887E-2
7.300379080E-1 -1.331686229E-2 -1.272345055E-2 -3.677408770E-2
7.340379080E-1 -9.529497474E-3 -9.372417815E-3 -3.310889751E-2
7.380379080E-1 -2.234021435E-3 -3.682644805E-3 -3.275983036E-2
7.420379080E-1 4.921828397E-3 -5.497787148E-3 -3.385938704E-2
7.460379080E-1 1.010545623E-2 -1.336922217E-2 -3.567453101E-2
7.500379080E-1 1.237438433E-2 -1.572541706E-2 -3.132865950E-2
7.540379080E-1 9.948376566E-3 -6.248278543E-3 -2.808234841E-2
7.580379080E-1 8.115780540E-3 2.234021435E-3 -2.302089334E-2
7.620379080E-1 3.263765713E-3 7.155850064E-3 -1.898918301E-2
7.660379080E-1 6.457717973E-4 1.174606569E-2 -1.328195538E-2
7.700379080E-1 -6.283185212E-4 1.251401100E-2 -8.011061698E-3
7.740379080E-1 -1.117010717E-3 9.389871731E-3 -8.307767101E-3
7.780379080E-1 -1.745329209E-4 3.001966281E-3 -1.062905509E-2
7.820379080E-1 -1.745329238E-3 7.487462368E-3 -7.487462368E-3
7.860379080E-1 -9.826203808E-3 2.912954427E-2 4.747295752E-3
7.900379080E-1 -1.450368576E-2 5.377359316E-2 1.790707745E-2
7.940379080E-1 -1.422443334E-2 6.080726907E-2 2.794272080E-2
7.980379080E-1 -7.365289610E-3 5.555383116E-2 2.862340026E-2
8.020379080E-1 -2.111848444E-3 5.672319978E-2 1.736602560E-2
8.060379080E-1 5.550147034E-3 5.932373926E-2 3.857177682E-3
8.100379080E-1 1.989675313E-2 3.279473633E-2 -5.794493016E-3
8.140379080E-1 4.185299575E-2 -2.834414691E-2 -1.750565320E-2
8.180379080E-1 5.679301545E-2 -8.391542733E-2 -3.019419685E-2
8.220379080E-1 4.895648360E-2 -9.108873457E-2 -4.132939503E-2
8.260379080E-1 1.783726551E-2 -3.708824515E-2 -4.530874640E-2
8.300379080E-1 -1.811651699E-2 2.405063622E-2 -4.166100919E-2
8.340394700E-1 -3.115412779E-2 1.820378378E-2 -3.033382259E-2
8.380410330E-1 -2.638937905E-2 -3.921754658E-2 -1.848303713E-2
8.420379080E-1 -2.422516979E-2 -7.248352468E-2 -1.103048120E-2
8.460379080E-1 -2.741912194E-2 -6.052801758E-2 -1.118756086E-2
8.500379080E-1 -3.234095126E-2 -3.433062509E-2 -1.139700040E-2
8.540379080E-1 -3.241076320E-2 -9.896016680E-3 -2.722713631E-3
8.580379080E-1 -2.972295694E-2 1.438151300E-2 9.023352526E-3
8.620394700E-1 -2.300344035E-2 3.426081315E-2 1.886700839E-2
8.660379080E-1 -7.993607782E-3 4.607669264E-2 2.534218132E-2
8.700379080E-1 6.126105785E-3 4.750786349E-2 2.085668407E-2
8.740379080E-1 2.111848444E-2 4.365068302E-2 1.411971357E-2
8.780379080E-1 3.344050795E-2 4.084070399E-2 7.243116386E-3
8.820379080E-1 4.628613219E-2 2.687807009E-2 -7.155850180E-4
8.860379080E-1 5.703736097E-2 -8.203047328E-4 -4.293509759E-3
8.900379080E-1 6.494370103E-2 -5.621705577E-2 -7.190756500E-3
8.940441580E-1 6.161012128E-2 -1.173733920E-1 -2.792526793E-4
8.980379080E-1 3.426081315E-2 -1.163785532E-1 1.026253588E-2
9.020379080E-1 -1.321214251E-2 -5.120795965E-2 2.188642882E-2
9.060379080E-1 -5.770058557E-2 6.230825558E-3 3.124139272E-2
9.100379080E-1 -7.248352468E-2 -3.892084118E-3 3.309144080E-2
9.140379080E-1 -6.832963973E-2 -5.897467583E-2 2.708750963E-2
9.180379080E-1 -5.955063552E-2 -9.253735840E-2 1.740093343E-2
9.220379080E-1 -5.215043947E-2 -8.187339455E-2 1.155408006E-2
9.260379080E-1 -4.584980011E-2 -4.035201296E-2 8.674286306E-3
9.300379080E-1 -3.970624134E-2 -2.129301662E-3 1.137954649E-2
9.340379080E-1 -2.591813914E-2 3.117158078E-2 1.750565320E-2
9.380379080E-1 -6.806783844E-3 5.609488115E-2 2.122320421E-2
9.420379080E-1 1.818633080E-2 7.075564563E-2 2.309070528E-2
9.460379080E-1 4.382521659E-2 6.703809649E-2 3.244566917E-2
9.500379080E-1 6.422811747E-2 5.686282739E-2 4.888667166E-2
9.540379080E-1 6.878342479E-2 5.511749908E-2 7.229153812E-2
9.580379080E-1 6.304129213E-2 5.902703479E-2 9.707520902E-2
9.620379080E-1 5.160938576E-2 4.518657550E-2 1.245990545E-1
9.660379080E-1 3.703588620E-2 1.068141498E-2 1.579697430E-1
9.700379080E-1 1.593485661E-2 -9.459684603E-3 1.859473735E-1
9.740379080E-1 -1.078613475E-2 -1.710422710E-2 2.156528831E-1
9.780379080E-1 -3.476695716E-2 -3.262020275E-2 2.447824329E-1
9.820379080E-1 -4.975933582E-2 -5.609488115E-2 2.725506127E-1
9.860379080E-1 -5.998696759E-2 -7.850491256E-2 3.023608327E-1
9.900379080E-1 -6.490879506E-2 -8.796459436E-2 3.346843421E-1
9.940379080E-1 -6.590363383E-2 -8.244935423E-2 3.682470322E-1
9.980379080E-1 -6.239552051E-2 -6.895796210E-2 4.015479088E-1
1.002037908E0 -5.260422453E-2 -5.880014226E-2 4.354945421E-1
1.006037908E0 -3.740240633E-2 -5.345943570E-2 4.689001441E-1
1.010037908E0 -2.183406800E-2 -3.851941600E-2 5.028991699E-1
1.014037908E0 -9.791296907E-3 -1.158898603E-2 5.399001241E-1
1.018037908E0 -2.286381321E-3 1.363102160E-2 5.739515424E-1
1.022037908E0 4.310963210E-3 3.227113932E-2 6.046518683E-1
1.026037908E0 1.281071641E-2 4.180063680E-2 6.341828108E-1
1.030037908E0 1.443387289E-2 4.307472706E-2 6.668553948E-1
1.034037908E0 1.485275198E-2 3.331833705E-2 7.074342966E-1
1.038037908E0 1.179842558E-2 2.279400080E-2 7.449763417E-1
1.042037908E0 4.084070213E-3 2.153736353E-2 7.823089361E-1
1.046037908E0 -2.146754880E-3 1.898918301E-2 8.138819337E-1
1.050037908E0 -4.974188283E-3 7.766715251E-3 8.362570405E-1
1.054037908E0 -1.066396199E-2 1.064650831E-3 8.542688489E-1
1.058037908E0 -1.953023486E-2 -5.759586580E-3 8.752302527E-1
1.062037908E0 -2.680825815E-2 -2.246238664E-2 8.951444626E-1
1.066037908E0 -3.562216833E-2 -3.359758854E-2 9.129991531E-1
1.070037908E0 -4.351105914E-2 -3.574434295E-2 9.241169095E-1
1.074037908E0 -4.495968297E-2 -4.546582699E-2 9.346936345E-1
1.078041033E0 -4.157374427E-2 -5.991715193E-2 9.443627596E-1
1.082041033E0 -4.054399952E-2 -5.604252219E-2 9.563705921E-1
1.086037908E0 -4.522148147E-2 -2.008873969E-2 9.640325904E-1
1.090037908E0 -5.007349700E-2 1.490511186E-2 9.705426693E-1
1.094037908E0 -4.066617042E-2 1.111774705E-2 9.771924019E-1
1.098037908E0 -1.968731359E-2 -2.331759781E-2 9.830043316E-1
1.102041033E0 -2.600540640E-3 -3.731513768E-2 9.882752299E-1
1.106037908E0 -8.552113432E-4 -1.717403904E-2 9.892176986E-1
1.110037908E0 -8.534659632E-3 2.464404888E-2 9.879436493E-1
1.114050408E0 -2.078687213E-2 7.546803355E-2 9.900031090E-1
1.118037908E0 -2.504547499E-2 9.150761366E-2 9.977872968E-1
1.122037908E0 -4.345869645E-3 4.120722413E-2 1.000876546E0
1.126037908E0 1.809906401E-2 -2.604031190E-2 1.001208067E0
1.130037908E0 2.094395086E-2 -6.077236310E-2 1.007473826E0
1.134037908E0 6.614797749E-3 -4.724606127E-2 1.018731236E0
1.138037908E0 -1.396263391E-2 -1.310742274E-2 1.030861259E0
1.142037908E0 -3.185226023E-2 6.195918657E-3 1.038540721E0
1.146037908E0 -3.710569814E-2 -3.508111695E-3 1.039640307E0
1.150037908E0 -3.757693991E-2 -2.712241560E-2 1.039326072E0
1.154037908E0 -3.077015467E-2 -7.225663215E-2 1.035643458E0
1.158037908E0 -2.626720443E-2 -1.066745222E-1 1.033304691E0
1.162037908E0 -3.382448107E-2 -8.391542733E-2 1.039622784E0
1.166037908E0 -4.845033959E-2 -2.343977243E-2 1.047756076E0
1.170037908E0 -5.033529550E-2 1.781981252E-2 1.052136779E0
1.174037908E0 -3.771656379E-2 3.455751808E-3 1.058228016E0
1.178037908E0 -1.305506285E-2 -4.384266958E-2 1.062538981E0
1.182037908E0 4.677482415E-3 -5.682792142E-2 1.066064596E0
1.186037908E0 7.208209950E-3 -3.008947708E-2 1.078561068E0
1.190037908E0 -5.969026126E-3 1.514945831E-2 1.105439186E0
1.194037908E0 -1.425934024E-2 3.375466913E-2 1.138827324E0
1.198037908E0 -1.490511186E-2 3.314380348E-2 1.163035035E0
1.202037908E0 -1.265363675E-2 2.593559213E-2 1.183350682E0
1.206037908E0 -5.305801053E-3 -1.535889693E-3 1.197226048E0
1.210037908E0 -2.460914198E-3 -2.890265174E-2 1.209251404E0
1.214037908E0 -1.181587856E-2 -3.635520861E-2 1.229846239E0
1.218037908E0 -2.495820820E-2 -2.638937905E-2 1.254804492E0
1.222037908E0 -3.410373256E-2 -4.956734832E-3 1.269901514E0
1.226037908E0 -3.167772666E-2 -8.953538723E-3 1.271594524E0
1.230037908E0 -1.809906401E-2 -5.682792142E-2 1.262379169E0
1.234037908E0 -1.001818944E-2 -8.716174215E-2 1.257108331E0
1.238037908E0 -1.754055917E-2 -5.098106712E-2 1.257387519E0
1.242037908E0 -3.216641769E-2 5.637413356E-3 1.261977792E0
1.246037908E0 -3.419100121E-2 2.197369561E-2 1.262431502E0
1.250037908E0 -2.026327327E-2 -1.609193534E-2 1.257893682E0
1.254037908E0 -5.619960371E-3 -4.687954485E-2 1.249463797E0
1.258037908E0 -5.253441166E-3 -2.300344035E-2 1.243058443E0
1.262037908E0 -1.090830751E-2 2.406809106E-2 1.232813358E0
1.266037908E0 -9.058258496E-3 3.007202223E-2 1.220194578E0
1.270037908E0 -3.141592606E-4 0.000000000E0 1.210577846E0
1.274037908E0 7.853982039E-3 -2.881538495E-2 1.199809194E0
1.278037908E0 2.757620299E-3 -1.483529899E-2 1.189459324E0
1.282037908E0 -8.796459064E-3 1.837831736E-2 1.187661648E0
1.286037908E0 -1.514945831E-2 2.164208330E-2 1.186614394E0
1.290037908E0 -1.558579039E-2 -9.267698042E-3 1.178952456E0
1.294044158E0 -1.614429615E-2 -3.378957510E-2 1.166717649E0
1.298037908E0 -2.141519077E-2 -3.324852139E-2 1.154500365E0
1.302037908E0 -2.986258268E-2 -2.900737152E-2 1.145738840E0
1.306037908E0 -3.176499158E-2 -4.281292483E-2 1.141794443E0
1.310037908E0 -3.602359444E-2 -4.598942399E-2 1.138216496E0
1.314037908E0 -3.925245628E-2 -4.511675984E-2 1.130222917E0
1.318037908E0 -2.850122750E-2 -7.108726352E-2 1.114427686E0
1.322037908E0 -2.881538495E-2 -6.141813472E-2 1.102315068E0
1.326037908E0 -4.939281940E-2 1.340412907E-2 1.104269862E0
1.330037908E0 -5.948081985E-2 6.675884128E-2 1.118023038E0
1.334037908E0 -4.115486518E-2 3.504621238E-2 1.137134314E0
1.338037908E0 -1.424188633E-2 -3.825761750E-2 1.154325843E0
1.342037908E0 1.263618376E-2 -1.109156758E-1 1.157764196E0
1.346037908E0 1.788962446E-2 -1.154709831E-1 1.157415032E0
1.350037908E0 -1.101302728E-2 -1.954768784E-2 1.164413810E0
1.354037908E0 -4.567526653E-2 7.860963047E-2 1.181587934E0
1.358037908E0 -4.857251421E-2 7.792895287E-2 1.200978518E0
1.362037908E0 -2.687807009E-2 7.086036727E-3 1.212515116E0
1.366037908E0 -9.285151958E-3 -4.314453900E-2 1.205289483E0
1.370037908E0 -2.214822732E-2 1.239183708E-3 1.197208643E0
1.374037908E0 -4.963716492E-2 9.634217620E-2 1.191798091E0
1.378037908E0 -4.450589418E-2 1.013861746E-1 1.178516150E0
1.382037908E0 -1.481784508E-2 1.457349956E-2 1.154866934E0
1.386037908E0 1.579522900E-2 -9.051277488E-2 1.120414138E0
1.390037908E0 2.923426405E-2 -1.352804750E-1 1.079643250E0
1.394037908E0 1.017526910E-2 -8.553858846E-2 1.054388285E0
1.398037908E0 -3.378957510E-2 2.802998759E-2 1.052485943E0
1.402037908E0 -6.431538612E-2 9.456194192E-2 1.053672671E0
1.406037908E0 -5.808455870E-2 5.494296551E-2 1.045242786E0
1.410037908E0 -4.333652556E-2 -4.398229532E-3 1.032519341E0
1.414037908E0 -3.766420484E-2 -2.127556317E-2 1.018347263E0
1.418037908E0 -4.673991725E-2 1.558579039E-2 1.008486152E0
1.422037908E0 -5.124286562E-2 5.628686771E-2 9.917659163E-1
1.426037908E0 -3.780383244E-2 4.586725309E-2 9.737017155E-1
1.430037908E0 -1.216494478E-2 -1.527163107E-2 9.583079219E-1
1.434037908E0 1.574287005E-2 -9.119345248E-2 9.399994016E-1
1.438037908E0 2.289872058E-2 -1.146855876E-1 9.278170466E-1
1.442037908E0 -1.073377486E-2 -2.464404888E-2 9.233140945E-1
1.446037908E0 -5.510004610E-2 9.037315100E-2 9.128071666E-1
1.450037908E0 -6.141813472E-2 1.036201939E-1 9.011833072E-1
1.454037908E0 -3.970624134E-2 2.069960535E-2 8.918457627E-1
1.458037908E0 -2.211332135E-2 -5.354670063E-2 8.720886707E-1
1.462037908E0 -1.918116771E-2 -6.630505621E-2 8.514239788E-1
1.466037908E0 -3.108431399E-2 -1.829105057E-2 8.300960660E-1
1.470037908E0 -4.564036056E-2 3.694862127E-2 8.017867804E-1
1.474037908E0 -2.960078418E-2 9.861109778E-3 7.787484527E-1
1.478037908E0 2.094395168E-4 -6.642723083E-2 7.607017756E-1
1.482037908E0 1.312487572E-2 -9.571385384E-2 7.453079224E-1
1.486037908E0 9.704031050E-3 -7.695156336E-2 7.295650840E-1
1.490037908E0 -7.417649496E-3 -2.677335031E-2 7.161260247E-1
1.494037908E0 -3.659955412E-2 6.534512341E-2 7.058460712E-1
1.498037908E0 -5.178391933E-2 1.029220670E-1 6.921800971E-1
1.502037908E0 -2.816961333E-2 2.958333120E-2 6.628934741E-1
1.506037908E0 -1.352630183E-2 -1.635373570E-2 6.290341020E-1
1.510037908E0 -2.012364566E-2 2.525491454E-2 5.926789045E-1
1.514037908E0 -2.816961333E-2 9.023351967E-2 5.598492622E-1
1.518037908E0 -2.984512970E-2 1.289100200E-1 5.251172185E-1
1.522037908E0 -1.221730467E-2 9.449212253E-2 4.907691181E-1
1.526037908E0 2.293362655E-2 7.295476273E-3 4.530351162E-1
1.530037908E0 5.139994621E-2 -7.719591260E-2 4.213922918E-1
1.534037908E0 5.583308265E-2 -1.246863231E-1 3.911457360E-1
1.538037908E0 2.914699912E-2 -9.812241048E-2 3.731688559E-1
1.542037908E0 -1.862266287E-2 -9.407324716E-3 3.636742532E-1
1.546037908E0 -6.347762793E-2 7.208209485E-2 3.520328999E-1
1.550039470E0 -7.864453644E-2 7.620107383E-2 3.390476704E-1
1.554041033E0 -6.543239206E-2 -9.878563695E-3 3.300941288E-1
1.558037908E0 -4.373795167E-2 -1.053306237E-1 3.212976754E-1
1.562037908E0 -4.797910154E-2 -1.014210805E-1 3.146305084E-1
1.566037908E0 -7.501424849E-2 -5.009094719E-3 3.116983473E-1
1.570037908E0 -8.918632567E-2 8.196066320E-2 3.025004566E-1
1.574039470E0 -6.368706375E-2 7.005751878E-2 2.865656018E-1
1.578037908E0 -1.771509275E-2 -3.106686054E-3 2.712590694E-1
1.582037908E0 2.813470736E-2 -6.754424423E-2 2.580818236E-1
1.586037908E0 6.239552051E-2 -1.045452207E-1 2.445555329E-1
1.590037908E0 7.374016196E-2 -1.114741787E-1 2.305056304E-1
1.594037908E0 6.164502725E-2 -9.536478668E-2 2.171887755E-1
1.598037908E0 2.853613347E-2 -3.310889751E-2 2.131221592E-1
1.602037908E0 -1.577777602E-2 6.072000414E-2 2.113070190E-1
1.606037908E0 -3.672172874E-2 8.937831223E-2 2.081305087E-1
1.610037908E0 -3.042108938E-2 1.898918301E-2 2.017426044E-1
1.614050408E0 -1.804670505E-2 -6.302383542E-2 1.925447285E-1
1.618037908E0 -1.797689125E-2 -8.623671532E-2 1.830675900E-1
1.622037908E0 -3.286454827E-2 -4.619886354E-2 1.763829738E-1
1.626037908E0 -4.911356419E-2 2.059488557E-3 1.671152711E-1
1.630037908E0 -5.126031861E-2 3.124139272E-2 1.504124701E-1
1.634037908E0 -3.389429301E-2 2.394591644E-2 1.288751066E-1
1.638037908E0 -7.243116386E-3 3.630284918E-3 1.070061326E-1
1.642037908E0 1.476548519E-2 -1.221730490E-3 7.993607968E-2
1.646037908E0 2.968805097E-2 1.527163107E-2 5.269148946E-2
1.650037908E0 4.321435094E-2 2.864085324E-2 3.159045801E-2
1.654037908E0 5.862560868E-2 1.331686229E-2 1.555088349E-2
1.658037908E0 6.131341681E-2 3.543018363E-3 8.813912980E-3
1.662037908E0 4.831071198E-2 2.117084339E-2 1.275835652E-2
1.666037908E0 2.789036185E-2 4.342379048E-2 2.298598550E-2
1.670037908E0 1.111774705E-2 3.616322204E-2 3.574434295E-2
1.674037908E0 3.892084118E-3 -9.232792072E-3 4.855506122E-2
1.678037908E0 -2.775073517E-3 -4.885176569E-2 5.672319978E-2
1.682037908E0 -2.033308521E-2 -4.187044874E-2 6.003932655E-2
1.686037908E0 -3.651228920E-2 -2.071705833E-2 6.061528623E-2
1.690037908E0 -3.939208016E-2 -3.113667294E-2 5.593780056E-2
1.694037908E0 -3.364994749E-2 -5.693263933E-2 4.825835302E-2
1.698037908E0 -3.244566917E-2 -5.075417459E-2 4.022983834E-2
1.702039470E0 -3.724532574E-2 -4.136430100E-3 3.616322204E-2
1.706041033E0 -3.642502055E-2 4.211479425E-2 3.316125646E-2
1.710037908E0 -1.679006778E-2 3.764675185E-2 2.426007576E-2
1.714037908E0 1.076868176E-2 9.616764262E-3 1.244419720E-2
1.718037908E0 2.970550396E-2 9.634217247E-3 2.129301662E-3
1.722037908E0 3.419100121E-2 4.773475602E-2 -7.155850064E-3
1.726041033E0 3.911282867E-2 7.463027537E-2 -1.321214251E-2
1.730037908E0 5.588544160E-2 3.680899367E-2 -1.567305624E-2
1.734037908E0 6.887069345E-2 -2.569124661E-2 -1.692969352E-2
1.738037908E0 6.068509817E-2 -4.066617042E-2 -1.110029407E-2
1.742037908E0 3.127630055E-2 -2.043780498E-2 -1.274090377E-3
1.746037908E0 3.874630900E-3 -1.045452245E-2 7.888888009E-3
1.750037908E0 -1.830850355E-2 -3.193952516E-2 1.659808122E-2
1.754037908E0 -3.371975943E-2 -6.421066076E-2 2.384119667E-2
1.758037908E0 -4.375540465E-2 -8.529423922E-2 3.129375353E-2
1.762037908E0 -5.420992523E-2 -7.829546928E-2 3.460988030E-2
1.766037908E0 -6.295402348E-2 -6.063273922E-2 3.396410868E-2
1.770037908E0 -6.162757427E-2 -4.354596511E-2 3.242821619E-2
1.774037908E0 -5.194099993E-2 -2.178170905E-2 2.872812003E-2
1.778037908E0 -3.558726236E-2 -7.330382941E-4 2.384119667E-2
1.782037908E0 -1.263618376E-2 1.361356769E-2 1.745329238E-2
1.786037908E0 8.080874570E-3 3.764675185E-2 1.111774705E-2
1.790037908E0 2.628465928E-2 7.524114102E-2 3.752457909E-3
1.794037908E0 4.653047770E-2 9.803514183E-2 -4.625122529E-3
1.798037908E0 6.717772037E-2 9.313076735E-2 -1.207767799E-2
1.802039470E0 8.279842138E-2 6.295402348E-2 -2.246238664E-2
1.806041033E0 9.409070015E-2 1.879719645E-2 -2.893755957E-2
1.810037908E0 8.953539282E-2 -2.029817924E-2 -2.776818909E-2
1.814037908E0 5.899212882E-2 -2.869321220E-2 -1.752310619E-2
1.818037908E0 2.179916203E-2 -2.513274178E-2 -7.155850064E-3
1.822037908E0 -1.513200440E-2 -3.005456924E-2 -6.981316837E-4
1.826041033E0 -4.989896342E-2 -4.399975017E-2 5.480333697E-3
1.830037908E0 -6.967354566E-2 -6.538003683E-2 9.651671164E-3
1.834037908E0 -7.993607968E-2 -9.054768085E-2 1.645845547E-2
1.838037908E0 -8.276351541E-2 -9.997245669E-2 2.637192421E-2
1.842037908E0 -7.942993194E-2 -9.566149861E-2 3.227113932E-2
1.846037908E0 -6.773623079E-2 -7.663740963E-2 3.440044075E-2
1.850037908E0 -5.728170648E-2 -3.691371530E-2 3.600614145E-2
1.854037908E0 -4.525638744E-2 1.666789502E-2 3.808308393E-2
1.858037908E0 -2.193878777E-2 5.311036855E-2 3.712315485E-2
1.862037908E0 1.092576142E-2 6.799802929E-2 3.567453101E-2
1.866037908E0 3.878121451E-2 9.442231059E-2 2.851868048E-2
1.870037908E0 6.138322875E-2 1.300968379E-1 1.672025397E-2
1.874037908E0 8.594001085E-2 1.388409436E-1 -3.490658419E-4
1.878037908E0 1.063603610E-1 1.150521040E-1 -1.864011586E-2
1.882037908E0 1.189092845E-1 6.986553222E-2 -3.907792270E-2
1.886037908E0 1.145110503E-1 1.785471849E-2 -4.953244328E-2
1.890037908E0 8.988445252E-2 -3.403391922E-3 -4.803146049E-2
1.894037908E0 3.965387866E-2 7.173303049E-3 -4.733332992E-2
1.898037908E0 -5.969026126E-3 4.869468510E-3 -4.670501128E-2
1.902037908E0 -4.525638744E-2 -3.394665569E-2 -4.923573881E-2
1.906037908E0 -7.161086053E-2 -8.159413934E-2 -5.291838199E-2
1.910037908E0 -8.916886896E-2 -1.158724055E-1 -5.253440887E-2
1.914037908E0 -9.946631640E-2 -1.193979755E-1 -4.776966199E-2
1.918037908E0 -1.023112014E-1 -1.071981192E-1 -3.900810704E-2
1.922037908E0 -9.115854651E-2 -9.752900153E-2 -2.316051908E-2
1.926037908E0 -7.829546928E-2 -7.412413508E-2 -3.665191354E-3
1.930037908E0 -6.442010403E-2 -1.982693933E-2 1.209513191E-2
1.934037908E0 -4.380776361E-2 3.815289587E-2 1.951278187E-2
1.938037908E0 -8.761553094E-3 6.473426521E-2 1.994911395E-2
1.942037908E0 3.377212211E-2 7.538077235E-2 1.703441329E-2
1.946037908E0 6.822492182E-2 9.936159104E-2 9.058258496E-3
1.950037908E0 9.239772707E-2 1.310916841E-1 -3.543018363E-3
1.954037908E0 1.133067757E-1 1.392423660E-1 -2.068215236E-2
1.958037908E0 1.318596303E-1 1.023984700E-1 -3.960151970E-2
1.962037908E0 1.379159242E-1 3.223622963E-2 -5.237733200E-2
1.966037908E0 1.202357337E-1 -7.487462368E-3 -5.284857005E-2
1.970037908E0 6.504841894E-2 1.087340154E-2 -4.272565991E-2
1.974037908E0 4.555309191E-3 4.736823589E-2 -3.750712425E-2
1.978037908E0 -4.673991725E-2 2.429498360E-2 -4.384266958E-2
1.982037908E0 -7.305948436E-2 -5.597271025E-2 -5.016076192E-2
1.986037908E0 -8.909905702E-2 -1.205149814E-1 -5.150466785E-2
1.990037908E0 -1.033583954E-1 -1.320690662E-1 -4.328416660E-2
1.994037908E0 -1.144586951E-1 -1.031315029E-1 -2.338741161E-2
1.998037908E0 -1.108982190E-1 -7.628834248E-2 -4.468042869E-3
2.002037908E0 -8.902924508E-2 -6.026621908E-2 1.336922217E-2
2.006037908E0 -6.419321150E-2 -3.068288788E-2 2.783800103E-2
2.010037908E0 -4.221951589E-2 1.963495463E-2 3.415609151E-2
2.014037908E0 -1.422443334E-2 6.906268001E-2 2.813470736E-2
2.018037908E0 2.302089334E-2 8.784241974E-2 1.361356769E-2
2.022037908E0 6.780604273E-2 9.044296294E-2 -4.607669078E-3
2.026037908E0 1.001295373E-1 1.036027446E-1 -2.593559213E-2
2.030037908E0 1.210385859E-1 1.225570217E-1 -4.398229718E-2
2.034037908E0 1.337271333E-1 1.091877967E-1 -5.818927661E-2
2.038037908E0 1.368861794E-1 4.457570985E-2 -6.250023842E-2
2.042037908E0 1.121548563E-1 4.118977115E-3 -5.653121322E-2
2.046037908E0 5.464625731E-2 3.693116829E-2 -5.316272750E-2
2.050041033E0 -4.171337001E-3 7.616616786E-2 -5.213298276E-2
2.054041033E0 -4.391248524E-2 2.972295694E-2 -5.714207888E-2
2.058037908E0 -6.194173545E-2 -7.113961875E-2 -5.860815570E-2
2.062037908E0 -7.895869762E-2 -1.278279126E-1 -5.386086181E-2
2.066037908E0 -1.001120880E-1 -1.073377505E-1 -4.089306295E-2
2.070041033E0 -1.122770309E-1 -6.969099492E-2 -2.214822732E-2
2.074037908E0 -1.011418328E-1 -6.738716364E-2 6.283185212E-4
2.078037908E0 -7.443828881E-2 -7.918559015E-2 2.871066518E-2
2.082037908E0 -5.256931856E-2 -5.611233413E-2 4.342379048E-2
2.086037908E0 -3.347541392E-2 -8.342674002E-3 4.185299575E-2
2.090037908E0 -5.323254038E-3 3.179989755E-2 2.441715635E-2
2.094044158E0 3.090978041E-2 5.206317082E-2 1.797689125E-3
2.098037908E0 6.354743987E-2 6.230825558E-2 -2.364921197E-2
2.102037908E0 9.087929130E-2 6.934192777E-2 -4.654793069E-2
2.106037908E0 1.041961536E-1 6.785839796E-2 -5.825908855E-2
2.110037908E0 1.002866179E-1 7.091272622E-2 -5.543165654E-2
2.114050408E0 7.593927532E-2 8.662068844E-2 -4.536110535E-2
2.118037908E0 4.653047770E-2 9.616763890E-2 -3.761184588E-2
2.122037908E0 2.141519077E-2 7.520623505E-2 -2.940879762E-2
2.126037908E0 9.948377265E-4 2.349213138E-2 -2.396337129E-2
2.130037908E0 -1.572541706E-2 -1.832595654E-2 -2.223549411E-2
2.134037908E0 -3.576179594E-2 -3.480186686E-2 -1.864011586E-2
2.138037908E0 -5.166174471E-2 -3.485422581E-2 -1.033234876E-2
2.142037908E0 -6.003932655E-2 -4.356341809E-2 4.310963210E-3
2.146037908E0 -5.424483120E-2 -6.361725181E-2 1.853539608E-2
2.150037908E0 -4.248131439E-2 -7.400196046E-2 2.691297606E-2
2.154037908E0 -3.415609151E-2 -5.593780056E-2 2.563888580E-2
2.158037908E0 -2.370157093E-2 -3.417354822E-2 1.537635084E-2
2.162037908E0 -5.026548170E-3 -3.193952516E-2 -4.450589418E-3
2.166037908E0 1.624901593E-2 -3.712315485E-2 -2.785545401E-2
2.170037908E0 2.572615258E-2 -2.284635976E-2 -4.253367335E-2
2.174037908E0 2.682571113E-2 3.473205259E-3 -4.035201296E-2
2.178037908E0 2.455678210E-2 2.104867063E-2 -3.450515866E-2
2.182037908E0 1.930334233E-2 2.998475730E-2 -2.981022373E-2
2.186037908E0 1.399754081E-2 3.576179594E-2 -2.588323317E-2
2.190037908E0 1.052433532E-2 4.150392860E-2 -2.169444226E-2
2.194037908E0 7.190756500E-3 3.953170776E-2 -2.330014482E-2
2.198037908E0 7.382742595E-3 2.848377265E-2 -2.614503168E-2
2.202037908E0 4.293509759E-3 2.375393175E-2 -1.562069636E-2
2.206037908E0 -5.689773243E-3 4.000294581E-2 6.859143730E-3
2.210037908E0 -1.583013684E-2 6.005677953E-2 2.914699912E-2
2.214037908E0 -1.937315427E-2 6.997025013E-2 4.427900165E-2
2.218037908E0 -2.015855350E-2 6.953391433E-2 4.717624933E-2
2.222037908E0 -1.253146399E-2 6.174974889E-2 2.867575921E-2
2.226037908E0 2.984513063E-3 4.586725309E-2 4.101523664E-3
2.230037908E0 2.193878777E-2 2.441715635E-2 -1.869247667E-2
2.234037908E0 4.344124347E-2 -8.098327555E-3 -4.314453900E-2
2.238037908E0 5.794493109E-2 -4.113740847E-2 -7.044149190E-2
2.242037908E0 5.932373926E-2 -7.007496804E-2 -9.834930301E-2
2.246037908E0 4.194026068E-2 -7.763224840E-2 -1.142143458E-1
2.250037908E0 1.164134592E-2 -6.967354566E-2 -1.117185280E-1
2.254037908E0 -1.987930015E-2 -5.267403647E-2 -1.030965969E-1
2.258037908E0 -4.797910154E-2 -3.694862127E-2 -8.532914519E-2
2.262037908E0 -6.616543233E-2 -3.358013555E-2 -6.339035928E-2
2.266037908E0 -6.307619810E-2 -4.927064478E-2 -4.530874640E-2
2.270037908E0 -5.155702680E-2 -5.717698485E-2 -3.743731230E-2
2.274037908E0 -4.703662172E-2 -1.982693933E-2 -1.780235767E-2
2.278037908E0 -4.799655452E-2 4.581489414E-2 9.145525284E-3
2.282037908E0 -3.515093029E-2 8.210028708E-2 2.898991853E-2
2.286037908E0 -6.667157635E-3 8.475318551E-2 3.176499158E-2
2.290037908E0 2.453932911E-2 7.518878579E-2 1.802925020E-2
2.294037908E0 5.496041849E-2 7.719591260E-2 2.687806962E-3
2.298037908E0 7.826056331E-2 7.202973962E-2 -1.408480667E-2
2.302037908E0 9.847147763E-2 3.218387067E-2 -3.652974218E-2
2.306037908E0 1.115788966E-1 -2.790781483E-2 -6.269222498E-2
2.310037908E0 1.062905490E-1 -8.410741389E-2 -9.046041220E-2
2.314037908E0 7.735299319E-2 -1.043532342E-1 -1.064301804E-1
2.318037908E0 2.298598550E-2 -8.419468254E-2 -1.032362282E-1
2.322037908E0 -3.513347730E-2 -5.146975815E-2 -8.522442728E-2
2.326037908E0 -7.998844236E-2 -4.667010531E-2 -6.065019220E-2
2.330037908E0 -9.979792684E-2 -8.351400495E-2 -3.452261165E-2
2.334037908E0 -1.043532342E-1 -1.243547052E-1 -7.836528122E-3
2.338037908E0 -1.016130671E-1 -1.329068244E-1 8.447393775E-3
2.342037908E0 -9.353219718E-2 -1.026253626E-1 1.509709843E-2
2.346037908E0 -8.419468254E-2 -4.441862926E-2 1.909390278E-2
2.350037908E0 -6.551966071E-2 1.186823938E-3 1.832595654E-2
2.354037908E0 -2.993239649E-2 1.879719645E-2 1.315978263E-2
2.358037908E0 7.487462368E-3 3.330088034E-2 1.727875904E-3
2.362037908E0 4.403465614E-2 5.920156837E-2 -8.918632753E-3
2.366037908E0 7.360053062E-2 7.848745584E-2 -1.455604564E-2
2.370037908E0 1.007229537E-1 7.419394702E-2 -2.295107953E-2
2.374037908E0 1.183507740E-1 5.482079089E-2 -3.597123548E-2
2.378037908E0 1.127133593E-1 4.508185387E-2 -4.539601505E-2
2.382037908E0 8.429940045E-2 6.030112505E-2 -4.921828583E-2
2.386037908E0 4.782202095E-2 6.990043819E-2 -4.375540465E-2
2.390037908E0 1.541125681E-2 4.471533373E-2 -3.087487444E-2
2.394037908E0 -1.438151300E-2 4.712388909E-4 -2.312561311E-2
2.398037908E0 -3.902556375E-2 -2.612757869E-2 -2.052507177E-2
2.402037908E0 -5.778785050E-2 -3.426081315E-2 -2.000147291E-2
2.406037908E0 -6.435029209E-2 -4.792674258E-2 -1.774999872E-2
2.410037908E0 -5.883504823E-2 -7.724827528E-2 -1.340412907E-2
2.414037908E0 -4.745550081E-2 -1.025380939E-1 -7.609635592E-3
2.418037908E0 -4.326671362E-2 -9.560913593E-2 5.619960371E-3
2.422037908E0 -4.534365237E-2 -5.208062381E-2 2.338741161E-2
2.426037908E0 -4.379031062E-2 -1.254891697E-2 3.556980938E-2
2.430037908E0 -3.134611249E-2 1.008800324E-2 3.902556375E-2
2.434037908E0 -1.303760987E-2 2.726204321E-2 2.804744057E-2
2.438037908E0 7.522369269E-3 4.635594413E-2 1.103048120E-2
2.442037908E0 3.125884756E-2 5.707226694E-2 -1.239183708E-3
2.446037908E0 5.490805954E-2 5.187118426E-2 -4.433136433E-3
2.450037908E0 6.892304868E-2 4.673991725E-2 -1.204277156E-3
2.454037908E0 6.866125017E-2 5.262167752E-2 4.747295752E-3
2.458037908E0 5.893976986E-2 5.989969894E-2 1.157153305E-2
2.462037908E0 4.738568887E-2 4.600688070E-2 2.207841538E-2
2.466037908E0 3.007202223E-2 1.872738265E-2 2.888519876E-2
2.470037908E0 1.185078546E-2 -9.145525284E-3 3.262020275E-2
2.474037908E0 -5.986479111E-3 -3.359758854E-2 3.434807807E-2
2.478037908E0 -2.673844434E-2 -4.928809777E-2 3.855432197E-2
2.482037908E0 -4.270820692E-2 -6.586872786E-2 4.536110535E-2
2.486037908E0 -5.331980810E-2 -8.164650202E-2 5.572836101E-2
2.490037908E0 -5.731661245E-2 -8.667305112E-2 6.850416958E-2
2.494037908E0 -5.729915947E-2 -8.210028708E-2 8.374089748E-2
2.498037908E0 -5.066690966E-2 -7.007496804E-2 9.840166569E-2
2.502037908E0 -3.930481523E-2 -5.909684673E-2 1.148601174E-1
2.506037908E0 -2.443460934E-2 -4.434881732E-2 1.316501796E-1
2.510037908E0 -1.048942842E-2 -2.544690110E-2 1.498714238E-1
2.514037908E0 2.181661548E-3 -2.094395168E-4 1.707281023E-1
2.518037908E0 1.240929123E-2 2.143264376E-2 1.921258420E-1
2.522037908E0 2.228785492E-2 3.836233541E-2 2.148674875E-1
2.526037908E0 3.270747140E-2 4.941027239E-2 2.358637899E-1
2.530037908E0 3.497639671E-2 5.197590590E-2 2.604380250E-1
2.534037908E0 3.375466913E-2 5.098106712E-2 2.883807421E-1
2.538037908E0 2.921681106E-2 4.591961205E-2 3.146305084E-1
2.542037908E0 2.202605456E-2 3.570943698E-2 3.449468613E-1
2.546037908E0 1.230457146E-2 2.581341937E-2 3.761882782E-1
2.550037908E0 3.001966281E-3 1.377064735E-2 4.078310728E-1
2.554037908E0 -5.724680144E-3 2.181661548E-3 4.394041002E-1
2.558037908E0 -1.523672417E-2 -1.867502346E-3 4.681147635E-1
2.562037908E0 -2.284635976E-2 -1.029744279E-2 4.963716269E-1
2.566037908E0 -2.813470736E-2 -2.651155181E-2 5.255535245E-1
2.570037908E0 -3.310889751E-2 -3.405137360E-2 5.551543236E-1
2.574037908E0 -3.518583626E-2 -3.932226822E-2 5.875476599E-1
2.578037908E0 -3.405137360E-2 -4.295255244E-2 6.209881306E-1
2.582037908E0 -3.166027367E-2 -3.593632951E-2 6.572560668E-1
2.586037908E0 -2.666863054E-2 -2.565634064E-2 6.935065985E-1
2.590037908E0 -1.919862255E-2 -1.712168008E-2 7.283957005E-1
2.594037908E0 -9.861109778E-3 -3.892084118E-3 7.588691711E-1
2.598037908E0 -2.757620299E-3 1.202531811E-2 7.898312807E-1
2.602037908E0 4.188789986E-3 1.951278187E-2 8.185419440E-1
2.606037908E0 8.115780540E-3 1.858775690E-2 8.428893089E-1
2.610037908E0 1.080358773E-2 1.909390278E-2 8.636936545E-1
2.614050408E0 7.731808349E-3 1.562069636E-2 8.894197941E-1
2.618037908E0 4.223696887E-3 7.190756500E-3 9.169087410E-1
2.622037908E0 5.934119690E-4 -5.078908056E-3 9.445547462E-1
2.626037908E0 -2.303834539E-3 -1.417207345E-2 9.633519053E-1
2.630037908E0 -3.804817796E-3 -1.036725566E-2 9.736842513E-1
2.634037908E0 -8.569566533E-3 -9.634217247E-3 9.838770032E-1
2.638037908E0 -7.696901914E-3 -3.398156166E-2 9.975254536E-1
2.642037908E0 -7.016223390E-3 -5.319763720E-2 1.019307137E0
2.646037908E0 -2.216568217E-2 -1.802925020E-2 1.045905948E0
2.650037908E0 -3.654719517E-2 2.989749052E-2 1.068665147E0
2.654037908E0 -3.022910282E-2 2.347467840E-2 1.080009699E0
2.658037908E0 -8.691739291E-3 -2.848377265E-2 1.087793946E0
2.662037908E0 9.721484035E-3 -8.110544831E-2 1.092680812E0
2.666037908E0 1.199041214E-2 -8.794713765E-2 1.099505067E0
2.670037908E0 -3.211405827E-3 -3.551745042E-2 1.119192362E0
2.674037908E0 -2.768092230E-2 4.743804783E-2 1.144970894E0
2.678037908E0 -3.303908184E-2 7.909832150E-2 1.159823656E0
2.682037908E0 -1.350884791E-2 3.345796093E-2 1.165949702E0
2.686037908E0 1.494001877E-2 -3.965387866E-2 1.167695045E0
2.690037908E0 2.659881860E-2 -7.291985303E-2 1.169806957E0
2.694037908E0 1.307251584E-2 -3.296926990E-2 1.178463817E0
2.698037908E0 -1.467821933E-2 3.274237737E-2 1.192635775E0
2.702037908E0 -3.820525855E-2 7.867944241E-2 1.201467156E0
2.706037908E0 -4.525638744E-2 7.862707973E-2 1.201344967E0
2.710037908E0 -3.279473633E-2 2.249729447E-2 1.193787694E0
2.714037908E0 -1.085594762E-2 -6.974335760E-2 1.190297127E0
2.718037908E0 -3.438298590E-3 -1.167625263E-1 1.199756742E0
2.722037908E0 -2.228785492E-2 -8.038986474E-2 1.217000604E0
2.726037908E0 -5.042256042E-2 -1.047197584E-4 1.232778430E0
2.730037908E0 -6.290166825E-2 4.427900165E-2 1.246706128E0
2.734037908E0 -4.492477328E-2 -1.546361670E-2 1.249568462E0
2.738037908E0 -1.506219152E-2 -9.608037770E-2 1.242499948E0
2.742037908E0 -4.991641734E-3 -1.070934013E-1 1.233110070E0
2.746037908E0 -1.743583940E-2 -4.560545459E-2 1.225989103E0
2.750037908E0 -3.064798191E-2 9.616764262E-3 1.219775677E0
2.754037908E0 -2.972295694E-2 2.357939817E-2 1.214400053E0
2.758037908E0 -1.998401992E-2 1.108284108E-2 1.205464005E0
2.762037908E0 -1.141445339E-2 5.689773243E-3 1.193351388E0
2.766037908E0 -6.021386012E-3 1.977458037E-2 1.185375214E0
2.770037908E0 -3.420845373E-3 4.214970022E-2 1.179982185E0
2.774037908E0 8.726646047E-5 3.853686899E-2 1.175863266E0
2.778037908E0 1.246165112E-2 -2.129301662E-3 1.167729974E0
2.782037908E0 1.975712739E-2 -4.143411666E-2 1.154901862E0
2.786037908E0 8.447393775E-3 -3.649483621E-2 1.155460358E0
2.790037908E0 -2.117084339E-2 5.026548170E-3 1.165705442E0
2.794037908E0 -4.276056588E-2 2.914699912E-2 1.184170961E0
2.798037908E0 -5.215043947E-2 2.204350755E-2 1.200297832E0
2.802037908E0 -4.647811875E-2 -1.139700040E-2 1.208274007E0
2.806037908E0 -2.902482450E-2 -6.248278543E-2 1.212899089E0
2.810037908E0 -1.979203336E-2 -8.351400495E-2 1.223877192E0
2.814037908E0 -2.867575921E-2 -6.339035928E-2 1.237892270E0
2.818037908E0 -3.853686899E-2 -2.666863054E-2 1.249376535E0
2.822037908E0 -4.501204193E-2 1.240929123E-2 1.253128886E0
2.826037908E0 -4.897394031E-2 4.309218004E-2 1.245222569E0
2.830037908E0 -3.841469809E-2 5.141739920E-2 1.235937476E0
2.834037908E0 -1.488765888E-2 2.708750963E-2 1.222830057E0
2.838037908E0 7.644542027E-3 -1.178097259E-2 1.210211277E0
2.842037908E0 2.481858246E-2 -4.075343907E-2 1.201659203E0
2.846037908E0 3.398156166E-2 -5.660102889E-2 1.195061803E0
2.850037908E0 2.583087236E-2 -4.660028964E-2 1.195445776E0
2.854037908E0 4.886921961E-3 -8.587019518E-3 1.204277158E0
2.858037908E0 -1.563815027E-2 2.316051908E-2 1.218780875E0
2.862037908E0 -2.926917188E-2 3.162536770E-2 1.228135824E0
2.866037908E0 -2.801253460E-2 -2.286381321E-3 1.227734447E0
2.870037908E0 -2.809980139E-2 -2.342231758E-2 1.212707162E0
2.874037908E0 -4.454080388E-2 1.094321441E-2 1.200350165E0
2.878037908E0 -5.698499829E-2 6.154030934E-2 1.196981668E0
2.882037908E0 -4.865977913E-2 5.478588492E-2 1.190995216E0
2.886037908E0 -1.876228862E-2 -1.429424621E-2 1.181605339E0
2.890037908E0 1.537635084E-2 -1.026777178E-1 1.169073939E0
2.894037908E0 3.317870945E-2 -1.423316002E-1 1.152999401E0
2.898037908E0 1.797689125E-2 -9.341002256E-2 1.146995425E0
2.902037908E0 -2.001892589E-2 1.305506285E-2 1.147693634E0
2.906037908E0 -4.354596511E-2 8.293804526E-2 1.149683237E0
2.910037908E0 -2.994984947E-2 5.373868719E-2 1.150363922E0
2.914037908E0 -1.054178830E-2 -1.148426626E-2 1.140764594E0
2.918037908E0 -7.888888009E-3 -2.101376466E-2 1.129507303E0
2.922037908E0 -1.699950732E-2 1.008800324E-2 1.119052768E0
2.926037908E0 -2.405063622E-2 3.529055789E-2 1.108650565E0
2.930037908E0 -1.401499379E-2 -9.773843922E-4 1.099906445E0
2.934037908E0 3.961897455E-3 -7.630579174E-2 1.096887112E0
2.938037908E0 1.410226058E-2 -1.161865667E-1 1.095194101E0
2.942037908E0 -1.012290944E-3 -8.716174215E-2 1.095647931E0
2.946037908E0 -3.024655581E-2 -1.916371472E-2 1.104653835E0
2.950037908E0 -4.694935679E-2 1.640609466E-2 1.113170981E0
2.954037908E0 -3.954916075E-2 2.757620299E-3 1.118110299E0
2.958037908E0 -3.427826613E-2 9.250245057E-4 1.119244695E0
2.962037908E0 -4.673991725E-2 5.251695588E-2 1.119541407E0
2.966037908E0 -5.590289459E-2 1.139525473E-1 1.113764405E0
2.970037908E0 -4.174827412E-2 1.098335683E-1 1.102297544E0
2.974037908E0 -1.169370580E-2 4.488986731E-2 1.092837930E0
2.978037908E0 2.218313515E-2 -3.211405873E-2 1.076536536E0
2.982037908E0 5.466371030E-2 -1.100255549E-1 1.059327602E0
2.986037908E0 5.848598480E-2 -1.475850344E-1 1.047598958E0
2.990037908E0 3.132865950E-2 -1.045452207E-1 1.044998407E0
2.994037908E0 -1.459095255E-2 -6.405358203E-3 1.047337174E0
2.998037908E0 -5.414011329E-2 7.511897385E-2 1.058769107E0
3.002037908E0 -6.373942643E-2 4.665265232E-2 1.081196547E0
3.006037908E0 -5.187118426E-2 -4.614650458E-2 1.094426155E0
3.010037908E0 -5.991715193E-2 -6.096434966E-2 1.104636312E0
3.014037908E0 -7.632324845E-2 -5.427973811E-3 1.111233711E0
3.018037908E0 -7.717845589E-2 1.818633080E-2 1.110378504E0
3.022037908E0 -5.030038953E-2 -2.501056902E-2 1.106556177E0
3.026037908E0 -1.089085452E-2 -8.847074211E-2 1.089155316E0
3.030037908E0 2.073451132E-2 -1.304459125E-1 1.055854440E0
3.034037908E0 3.939208016E-2 -1.605179310E-1 1.011645198E0
3.038037908E0 2.878047898E-2 -1.335002333E-1 9.742078781E-1
3.042037908E0 -8.796459064E-3 -3.806563094E-2 9.549394250E-1
3.046037908E0 -4.148647562E-2 6.578145921E-2 9.693209529E-1
3.050037908E0 -5.710717291E-2 9.566149861E-2 1.009096980E0
3.054037908E0 -4.927064478E-2 3.577924892E-2 1.035137296E0
3.058037908E0 -4.042182490E-2 -1.123992074E-2 1.051857591E0
3.062037908E0 -4.159119725E-2 -7.051130291E-3 1.058332801E0
3.066037908E0 -4.295255244E-2 -2.600540640E-3 1.061195135E0
3.070037908E0 -3.445279971E-2 -3.015928902E-2 1.063917756E0
3.074037908E0 -1.249655709E-2 -8.948303014E-2 1.054248691E0
3.078037908E0 -3.420845373E-3 -1.077391729E-1 1.046429634E0
3.082037908E0 -1.596976258E-2 -5.740387738E-2 1.045905948E0
3.086037908E0 -3.071779385E-2 3.996803891E-3 1.054650068E0
3.090037908E0 -3.080506064E-2 1.233947743E-2 1.063865423E0
3.094037908E0 -1.905899495E-2 -1.155408006E-2 1.070183516E0
3.098037908E0 -1.478293911E-2 -1.513200440E-2 1.068071723E0
3.102037908E0 -2.405063622E-2 1.387536712E-2 1.055173755E0
3.106037908E0 -4.017747939E-2 6.557202339E-2 1.038418531E0
3.110037908E0 -4.621632025E-2 9.210102260E-2 1.018225074E0
3.114050408E0 -2.342231758E-2 2.181661502E-2 9.938603044E-1
3.118037908E0 1.024508290E-2 -9.534733742E-2 9.677675962E-1
3.122037908E0 2.267182618E-2 -1.595754474E-1 9.481675625E-1
3.126037908E0 4.694935866E-3 -1.251575649E-1 9.376432300E-1
3.130037908E0 -3.298672289E-2 -3.658210114E-2 9.344492555E-1
3.134037908E0 -6.389650702E-2 2.898991853E-2 9.337685704E-1
3.138037908E0 -6.703809649E-2 2.223549411E-2 9.305921197E-1
3.142037908E0 -4.026474431E-2 -5.426228791E-2 9.216210842E-1
3.146037908E0 -2.572615258E-2 -9.751154482E-2 9.128246307E-1
3.150037908E0 -3.157300502E-2 -5.806710571E-2 9.049532413E-1
3.154037908E0 -5.312782153E-2 3.597123548E-2 8.986874819E-1
3.158037908E0 -6.059783325E-2 8.574802428E-2 8.856323957E-1
3.162037908E0 -3.244566917E-2 3.356268257E-2 8.602204323E-1
3.166037908E0 4.276056774E-3 -5.871287733E-2 8.454549313E-1
3.170037908E0 2.834414691E-2 -1.270948797E-1 8.386132717E-1
3.174037908E0 2.527236752E-2 -1.213352904E-1 8.407251239E-1
3.178037908E0 -1.462585945E-2 -2.080432512E-2 8.570963144E-1
3.182037908E0 -5.672319978E-2 9.908234328E-2 8.705527782E-1
3.186037908E0 -6.305874884E-2 9.943141043E-2 8.751255274E-1
3.190037908E0 -3.651228920E-2 -4.171337001E-3 8.717919588E-1
3.194037908E0 -1.993165910E-2 -7.679449022E-2 8.596444726E-1
3.198037908E0 -2.748893574E-2 -5.583308265E-2 8.427671194E-1
3.202037908E0 -4.379031062E-2 5.113814492E-3 8.191179037E-1
3.206037908E0 -4.852015153E-2 3.520328924E-2 7.819249630E-1
3.210037908E0 -3.440044075E-2 2.197369561E-2 7.449763417E-1
3.214037908E0 -6.318091881E-3 -3.520328924E-2 7.214841843E-1
3.218053533E0 2.239257470E-2 -9.473647177E-2 7.043799758E-1
3.222037908E0 3.275983036E-2 -1.184380427E-1 6.930004358E-1
3.226037908E0 1.679006778E-2 -6.789331138E-2 6.851987839E-1
3.230037908E0 -2.199114859E-2 5.131268129E-2 6.845181584E-1
3.234037908E0 -3.743731230E-2 1.021366641E-1 6.885672808E-1
3.238037908E0 -1.584758982E-2 3.359758854E-2 6.890385151E-1
3.242037908E0 4.258603323E-3 -4.113740847E-2 6.868917942E-1
3.246037908E0 1.010545623E-2 -5.885250121E-2 6.809052825E-1
3.250037908E0 -2.652900526E-3 -2.115339041E-2 6.707823873E-1
3.254037908E0 -2.841396071E-2 4.590215907E-2 6.548824310E-1
3.258037908E0 -5.323254317E-2 1.034631208E-1 6.391569972E-1
3.262037908E0 -5.504768342E-2 1.084722131E-1 6.189461350E-1
3.266037908E0 -3.052580915E-2 4.590215907E-2 5.921378732E-1
3.270037908E0 -3.926991019E-3 -3.487167880E-2 5.667956471E-1
3.274037908E0 1.518436428E-2 -9.452702850E-2 5.448219776E-1
3.278037908E0 1.326450240E-2 -1.094845012E-1 5.327617526E-1
3.282037908E0 -1.356120780E-2 -5.681046844E-2 5.326395631E-1
3.286037908E0 -5.806710571E-2 4.094542563E-2 5.401270390E-1
3.290037908E0 -9.229300916E-2 1.192408949E-1 5.452582836E-1
3.294044158E0 -8.948303014E-2 9.634217620E-2 5.419247150E-1
3.298037908E0 -6.703809649E-2 -3.159045940E-3 5.338264108E-1
3.302037908E0 -5.017821491E-2 -7.724827528E-2 5.235987902E-1
3.306037908E0 -4.457570985E-2 -8.241444826E-2 5.090427399E-1
3.310037908E0 -5.440191180E-2 -3.843215108E-2 4.853760600E-1
3.314037908E0 -6.272713095E-2 3.822271014E-3 4.500156939E-1
3.318037908E0 -5.283111706E-2 1.075122785E-2 3.983364999E-1
3.322037908E0 -2.605776489E-2 -1.537635084E-2 3.401472270E-1
3.326037908E0 1.542871073E-2 -6.473426521E-2 2.865830660E-1
3.330037908E0 3.951425478E-2 -7.613126189E-2 2.409950644E-1
3.334037908E0 5.555383116E-2 -5.572836101E-2 2.014109939E-1
3.338037908E0 5.359905958E-2 -8.133234456E-3 1.691223979E-1
3.342037908E0 3.755948693E-2 6.812020391E-2 1.484926194E-1
3.346037908E0 3.230604529E-2 1.035852879E-1 1.312487572E-1
3.350037908E0 3.635520861E-2 8.482300490E-2 1.107760444E-1
3.354037908E0 4.600688070E-2 3.111921996E-2 8.979719132E-2
3.358037908E0 4.628613219E-2 -1.286307629E-2 7.543312758E-2
3.362037908E0 2.874557301E-2 -8.429939859E-3 6.672393531E-2
3.366037908E0 -6.632251316E-4 3.808308393E-2 6.145304441E-2
3.370037908E0 -2.387610450E-2 6.428047270E-2 5.510004610E-2
3.374037908E0 -2.405063622E-2 1.635373570E-2 4.712389037E-2
3.378037908E0 -1.308996975E-2 -5.044001341E-2 3.918264061E-2
3.382037908E0 -1.637118869E-2 -5.949827284E-2 2.747148275E-2
3.386037908E0 -3.019419685E-2 -7.295476273E-3 1.494001877E-2
3.390037908E0 -3.970624134E-2 4.204498231E-2 5.044001620E-3
3.394037908E0 -2.878047898E-2 3.851941600E-2 -4.747295752E-3
3.398037908E0 -4.537856206E-3 7.888888009E-3 -1.031489577E-2
3.402037908E0 1.382300723E-2 7.679448463E-3 -8.011061698E-3
3.406037908E0 2.342231758E-2 3.340560198E-2 -3.473205259E-3
3.410037908E0 3.134611249E-2 5.188863724E-2 8.377580671E-4
3.414037908E0 3.731513768E-2 4.361577705E-2 7.243116386E-3
3.418037908E0 4.279547185E-2 1.464331243E-2 1.537635084E-2
3.422037908E0 3.686135262E-2 2.076941775E-3 2.368411794E-2
3.426037908E0 1.874483563E-2 1.087340154E-2 2.989749052E-2
3.430037908E0 4.520402756E-3 1.335176919E-2 3.317870945E-2
3.434037908E0 -6.998770405E-3 -1.640609466E-3 3.012438305E-2
3.438037908E0 -1.631882787E-2 -2.153736353E-2 2.420771681E-2
3.442037908E0 -2.387610450E-2 -3.337069601E-2 1.619665511E-2
3.446037908E0 -3.096214123E-2 -2.907718532E-2 1.139700040E-2
3.450037908E0 -3.401646763E-2 -2.326523885E-2 9.686577134E-3
3.454037908E0 -2.698278986E-2 -2.401573025E-2 1.000073645E-2
3.458037908E0 -1.792453043E-2 -2.256710641E-2 8.726646192E-3
3.462037908E0 -1.132718660E-2 -1.089085452E-2 7.330382708E-3
3.466037908E0 -4.049163777E-3 6.126105785E-3 5.480333697E-3
3.470037908E0 2.949606394E-3 2.443460934E-2 1.221730490E-3
3.474037908E0 1.394518092E-2 2.998475730E-2 -3.630284918E-3
3.478037908E0 2.511528693E-2 2.343977243E-2 -7.906341925E-3
3.482037908E0 3.344050795E-2 1.719149388E-2 -1.158898603E-2
3.486037908E0 3.380702808E-2 1.647590846E-2 -1.314232964E-2
3.490037908E0 2.893755957E-2 1.689478755E-2 -1.490511186E-2
3.494039470E0 2.134537697E-2 7.382742595E-3 -1.207767799E-2
3.498041033E0 1.258382387E-2 -9.389871731E-3 -4.537856206E-3
3.502037908E0 1.570796361E-3 -1.890191622E-2 1.919862116E-3
3.506037908E0 -1.167625282E-2 -1.790707745E-2 8.272860199E-3
3.510037908E0 -2.265437320E-2 -1.734857261E-2 8.726646192E-3
3.514037908E0 -2.914699912E-2 -1.900663599E-2 4.782202188E-3
3.518041033E0 -2.947861142E-2 -2.305579931E-2 1.186823938E-3
3.522037908E0 -2.323033288E-2 -2.487094142E-2 4.014257283E-4
3.526037908E0 -1.858775690E-2 -1.677261479E-2 3.054326167E-3
3.530037908E0 -1.631882787E-2 2.042035107E-3 9.320057929E-3
3.534037908E0 -1.424188633E-2 2.396337129E-2 1.246165112E-2
3.538037908E0 -1.293289009E-2 5.405284837E-2 9.529497474E-3
3.542037908E0 -9.738937020E-3 8.360127360E-2 3.787364578E-3
3.546037908E0 5.585053586E-4 1.044055969E-1 -5.218534265E-3
3.550037908E0 1.558579039E-2 1.074250117E-1 -1.404990070E-2
3.554037908E0 3.455751762E-2 9.450957924E-2 -2.476622164E-2
3.558037908E0 5.487314984E-2 6.707300246E-2 -3.495894372E-2
3.562037908E0 6.949900836E-2 2.288126573E-2 -4.363323003E-2
3.566037908E0 7.679449022E-2 -2.071705833E-2 -4.965461791E-2
3.570037908E0 6.604325771E-2 -5.213298276E-2 -4.822344705E-2
3.574037908E0 4.082325101E-2 -5.729915947E-2 -3.926990926E-2
3.578037908E0 2.460914198E-3 -5.064945295E-2 -3.150319308E-2
3.582037908E0 -3.012438305E-2 -5.897467583E-2 -2.916445211E-2
3.586037908E0 -5.335471407E-2 -8.269369602E-2 -3.413863853E-2
3.590039470E0 -6.846926361E-2 -1.044055969E-1 -4.265584797E-2
3.594041033E0 -7.571238279E-2 -1.069188714E-1 -4.911356419E-2
3.598037908E0 -7.805112749E-2 -1.012116447E-1 -4.447098821E-2
3.602037908E0 -7.309439033E-2 -9.224065393E-2 -2.370157093E-2
3.606037908E0 -6.817255914E-2 -4.927064478E-2 -9.424777818E-4
3.610037908E0 -6.237806752E-2 2.141519077E-2 1.160643995E-2
3.614050408E0 -4.478514940E-2 7.993607968E-2 1.441641990E-2
3.618037908E0 -9.180432186E-3 8.888962120E-2 7.923794910E-3
3.622037908E0 3.818780556E-2 8.002334833E-2 -2.932153177E-3
3.626037908E0 7.494443655E-2 8.988445252E-2 -1.270599663E-2
3.630037908E0 1.055924222E-1 1.055924222E-1 -2.277654596E-2
3.634037908E0 1.253320873E-1 9.526006877E-2 -3.878121451E-2
3.638037908E0 1.372526884E-1 4.635594413E-2 -5.321509019E-2
3.642037908E0 1.345125288E-1 -2.405063622E-2 -6.255260110E-2
3.646037908E0 1.033933014E-1 -6.914994121E-2 -6.181956083E-2
3.650037908E0 4.890412465E-2 -5.651376024E-2 -6.131341681E-2
3.654037908E0 -2.069960535E-2 -1.822123677E-2 -6.239552051E-2
3.658037908E0 -7.140141726E-2 -2.623229846E-2 -6.733480096E-2
3.662037908E0 -9.936159104E-2 -9.503317624E-2 -8.005825430E-2
3.666037908E0 -1.122246683E-1 -1.624552459E-1 -9.197884798E-2
3.670037908E0 -1.194677874E-1 -1.752310544E-1 -9.313076735E-2
3.674037908E0 -1.263269335E-1 -1.362404078E-1 -8.049458265E-2
3.678037908E0 -1.261698455E-1 -7.936012000E-2 -5.836381018E-2
3.682037908E0 -1.083849445E-1 -2.597049996E-2 -4.550073296E-2
3.686037908E0 -6.956882030E-2 -2.862340072E-3 -4.080579802E-2
3.690037908E0 -1.293289009E-2 -1.064650831E-3 -3.581415489E-2
3.694044158E0 4.488986731E-2 8.534659632E-3 -3.570943698E-2
3.698037908E0 8.393288404E-2 5.166174471E-2 -4.155628756E-2
3.702037908E0 1.082278639E-1 9.564404190E-2 -5.256931856E-2
3.706037908E0 1.300793886E-1 1.044230461E-1 -6.162757427E-2
3.710037908E0 1.371479779E-1 9.068730474E-2 -6.127851084E-2
3.714037908E0 1.165705398E-1 1.084547564E-1 -5.996951461E-2
3.718037908E0 8.452629298E-2 1.271646917E-1 -6.398376822E-2
3.722037908E0 5.419247225E-2 9.372418374E-2 -7.586946338E-2
3.726037908E0 2.761110850E-2 1.490511186E-2 -8.785987645E-2
3.730037908E0 -3.804817796E-3 -3.803072497E-2 -9.552186728E-2
3.734037908E0 -4.213224724E-2 -4.778711498E-2 -9.630727023E-2
3.738037908E0 -7.560766488E-2 -4.199262336E-2 -8.658578247E-2
3.742037908E0 -9.564404190E-2 -4.920083284E-2 -6.883578748E-2
3.746037908E0 -1.034282148E-1 -6.178465486E-2 -5.199335888E-2
3.750037908E0 -9.702285379E-2 -6.358234584E-2 -4.249876738E-2
3.754037908E0 -7.607889920E-2 -5.890486389E-2 -3.356268257E-2
3.758037908E0 -4.698426276E-2 -5.574581772E-2 -2.218313515E-2
3.762037908E0 -1.696459949E-2 -3.792600334E-2 -1.576032303E-2
3.766037908E0 1.162389293E-2 -7.661995478E-3 -1.843067631E-2
3.770037908E0 4.029965401E-2 1.242674422E-2 -2.996730246E-2
3.774037908E0 7.037167251E-2 7.871435024E-3 -4.668755829E-2
3.778037908E0 8.724901080E-2 3.351032268E-3 -5.663593486E-2
3.782037908E0 8.398524672E-2 2.125811018E-2 -5.846852809E-2
3.786037908E0 6.489133835E-2 5.307546258E-2 -5.832890421E-2
3.790037908E0 4.291764647E-2 6.244787946E-2 -5.890486389E-2
3.794037908E0 2.556907386E-2 3.778637946E-2 -6.372196972E-2
3.798037908E0 1.277581044E-2 -2.059488557E-3 -7.070329040E-2
3.802037908E0 -4.677482415E-3 -3.160791099E-2 -7.387978584E-2
3.806037908E0 -2.670353837E-2 -3.448770568E-2 -7.154104859E-2
3.810037908E0 -4.598942399E-2 -2.890265174E-2 -6.520549953E-2
3.814037908E0 -5.750859901E-2 -2.398082428E-2 -5.288347602E-2
3.818037908E0 -6.140068173E-2 -1.743583940E-2 -4.152138159E-2
3.822037908E0 -5.372123420E-2 -1.705186628E-2 -3.419100121E-2
3.826037908E0 -3.331833705E-2 -2.691297606E-2 -2.747148275E-2
3.830037908E0 -1.143190637E-2 -3.385938704E-2 -2.555162087E-2
3.834037908E0 9.442231618E-3 -2.499311417E-2 -3.364994749E-2
3.838037908E0 2.604031190E-2 -6.859143730E-3 -4.824090004E-2
3.842037908E0 3.879866749E-2 5.253441166E-3 -7.087782025E-2
3.846037908E0 4.558800161E-2 1.343903481E-3 -8.777260780E-2
3.850037908E0 4.691445082E-2 -5.864306353E-3 -9.955357760E-2
3.854037908E0 3.431317210E-2 8.325220086E-3 -1.114916354E-1
3.858037908E0 1.417207345E-2 3.464478627E-2 -1.197295859E-1
3.862037908E0 -1.169370604E-3 3.897320107E-2 -1.288052946E-1
3.866037908E0 -6.527531426E-3 1.811651699E-2 -1.388409436E-1
3.870037908E0 -1.017526910E-2 -1.036725566E-2 -1.465902030E-1
3.874037908E0 -1.563815027E-2 -2.352703735E-2 -1.523672491E-1
3.878037908E0 -2.443460934E-2 -1.687733456E-2 -1.510233432E-1
3.882037908E0 -3.682644665E-2 7.714355364E-3 -1.419301778E-1
3.886037908E0 -4.637339711E-2 4.562290758E-2 -1.333955079E-1
3.890037908E0 -4.302236438E-2 6.832963973E-2 -1.228886321E-1
3.894037908E0 -2.106612362E-2 5.633922666E-2 -1.136558428E-1
3.898037908E0 4.991641734E-3 3.014183603E-2 -1.121548563E-1
3.902037908E0 2.563888580E-2 1.321214251E-2 -1.227490082E-1
3.906037908E0 4.021238536E-2 8.813912980E-3 -1.432740837E-1
3.910037908E0 4.761258140E-2 6.457718089E-3 -1.698728949E-1
3.914037908E0 4.127703607E-2 1.200786512E-2 -1.969604045E-1
3.918037908E0 2.321287990E-2 2.549926005E-2 -2.172934860E-1
3.922037908E0 2.530727303E-3 3.342305496E-2 -2.284636050E-1
3.926037908E0 -9.773843922E-3 1.818633080E-2 -2.363350391E-1
3.930037908E0 -1.809906401E-2 -1.425934024E-2 -2.457598150E-1
3.934037908E0 -2.839650773E-2 -2.682571113E-2 -2.570869923E-1
3.938037908E0 -3.921754658E-2 -1.216494478E-2 -2.672797143E-1
3.942037908E0 -4.085815698E-2 -1.378810150E-3 -2.719048560E-1
3.946037908E0 -3.131120652E-2 -4.904375412E-3 -2.675415277E-1
3.950037908E0 -2.492330223E-2 5.253441166E-3 -2.487966865E-1
3.954037908E0 -1.829105057E-2 3.652974218E-2 -2.225294858E-1
3.958037908E0 -6.928957067E-3 6.263986975E-2 -1.981995851E-1
3.962037908E0 1.603957638E-2 6.223843992E-2 -1.814618856E-1
3.966037908E0 3.860668465E-2 5.710717291E-2 -1.715484113E-1
3.970037908E0 5.050982907E-2 6.902777404E-2 -1.606750041E-1
3.974037908E0 5.811946467E-2 7.321656495E-2 -1.531700939E-1
3.978037908E0 6.792821735E-2 4.979424179E-2 -1.500110477E-1
3.982037908E0 7.485716790E-2 3.019419499E-3 -1.500983089E-1
3.986037908E0 6.930702180E-2 -3.223622963E-2 -1.493652761E-1
3.990037908E0 4.256857932E-2 -3.588397056E-2 -1.418080032E-1
3.994037908E0 3.979350906E-3 -1.918116771E-2 -1.259953231E-1
3.998037908E0 -2.911209129E-2 -1.118756086E-2 -1.057494953E-1
4.002037908E0 -5.281366408E-2 -2.399827726E-2 -8.332201838E-2
4.006037908E0 -6.290166825E-2 -4.499458894E-2 -6.014404446E-2
4.010037908E0 -6.551966071E-2 -5.572836101E-2 -3.785619140E-2
4.014037908E0 -6.138322875E-2 -5.672319978E-2 -1.698205434E-2
4.018037908E0 -4.932300374E-2 -5.171410739E-2 -1.047197584E-4
4.022037908E0 -3.398156166E-2 -3.296926990E-2 1.722639985E-2
4.026037908E0 -2.455678210E-2 3.385938704E-3 3.454006463E-2
4.030037908E0 -1.459095255E-2 4.780456796E-2 4.644321278E-2
4.034037908E0 5.235987919E-5 7.611380517E-2 4.954989627E-2
4.038037908E0 1.682497375E-2 9.491100162E-2 4.630358517E-2
4.042037908E0 3.443534672E-2 1.046499386E-1 3.054326214E-2
4.046037908E0 4.972442985E-2 1.062730998E-1 1.167625282E-2
4.050037908E0 5.942846090E-2 1.006880477E-1 -6.335545331E-3
4.054037908E0 6.316346675E-2 8.988445252E-2 -2.125811018E-2
4.058037908E0 6.098180264E-2 7.517132908E-2 -3.118903376E-2
4.062037908E0 5.604252219E-2 4.502949491E-2 -3.647737950E-2
4.066037908E0 5.009094998E-2 -6.946410518E-3 -3.694862127E-2
4.070037908E0 3.454006463E-2 -5.544910952E-2 -3.543018550E-2
4.074037908E0 9.407324716E-3 -8.091346174E-2 -2.748893574E-2
4.078037908E0 -2.061233856E-2 -8.375835419E-2 -1.654572040E-2
4.082037908E0 -4.982915148E-2 -8.929104358E-2 -6.614797749E-3
4.086037908E0 -7.070329040E-2 -9.934414178E-2 -4.014257283E-4
4.090037908E0 -8.367108554E-2 -1.042136103E-1 4.049163777E-3
4.094044158E0 -8.583529294E-2 -9.450957924E-2 6.283185445E-3
4.098037908E0 -8.025024086E-2 -6.443755329E-2 4.747295752E-3
4.102037908E0 -6.222098693E-2 -3.443534672E-2 4.485496320E-3
4.106037908E0 -3.855432197E-2 -4.817108624E-3 7.731808349E-3
4.110037908E0 -1.806415804E-2 3.361504152E-2 1.370083448E-2
4.114050408E0 4.852015525E-3 7.239625603E-2 1.631882787E-2
4.118037908E0 2.785545401E-2 1.044754088E-1 1.279326342E-2
4.122037908E0 4.965461791E-2 1.346870512E-1 5.532693584E-3
4.126037908E0 6.815510988E-2 1.528035700E-1 -2.809980186E-3
4.130037908E0 7.808603346E-2 1.567654759E-1 -9.197885171E-3
4.134037908E0 8.098327368E-2 1.484751552E-1 -1.193805225E-2
4.138037908E0 7.871434838E-2 1.271821409E-1 -1.038470864E-2
4.142037908E0 7.044149190E-2 9.379399568E-2 -5.759586580E-3
4.146037908E0 6.016149744E-2 4.536110535E-2 -2.443460980E-3
4.150037908E0 4.724606127E-2 -2.265437320E-2 -1.134464052E-3
4.154037908E0 2.371902391E-2 -7.627088577E-2 -1.082104165E-3
4.158037908E0 -1.055924222E-2 -9.447467327E-2 -3.630284918E-3
4.162037908E0 -4.509930685E-2 -9.752900153E-2 -6.702064537E-3
4.166037908E0 -7.098253816E-2 -1.190663576E-1 -7.958701812E-3
4.170037908E0 -8.628907800E-2 -1.412844062E-1 -9.948376566E-3
4.174037908E0 -9.782570601E-2 -1.421221644E-1 -1.122246683E-2
4.178037908E0 -1.006705910E-1 -1.135860309E-1 -1.125737373E-2
4.182037908E0 -9.374163300E-2 -7.616616786E-2 -8.098327555E-3
4.186037908E0 -7.206464559E-2 -4.982915148E-2 -2.007128671E-3
4.190037908E0 -4.532619938E-2 -1.682497375E-2 7.400196046E-3
4.194037908E0 -1.893682219E-2 3.469714522E-2 1.302015595E-2
4.198037908E0 7.033676840E-3 8.351400495E-2 1.343903504E-2
4.202037908E0 3.956661373E-2 1.182460561E-1 6.754423957E-3
4.206037908E0 6.806784123E-2 1.384220570E-1 2.007128671E-3
4.210037908E0 8.904670179E-2 1.533097178E-1 9.075712296E-4
4.214037908E0 1.023461074E-1 1.504473835E-1 4.537856206E-3
4.218037908E0 1.077740788E-1 1.292241812E-1 1.165879890E-2
4.222037908E0 1.054178849E-1 8.892452717E-2 1.654572040E-2
4.226037908E0 9.562659264E-2 3.202679008E-2 1.825614460E-2
4.230037908E0 7.426375896E-2 -2.405063622E-2 2.005383372E-2
4.234037908E0 3.392919898E-2 -6.248278543E-2 1.797689125E-2
4.238037908E0 -1.225221157E-2 -8.377580345E-2 1.111774705E-2
4.242037908E0 -5.729915947E-2 -1.016479731E-1 3.735004691E-3
4.246037908E0 -9.311331809E-2 -1.209338605E-1 -1.169370604E-3
4.250037908E0 -1.175130159E-1 -1.300270259E-1 -4.869468510E-3
4.254037908E0 -1.300444752E-1 -1.238136590E-1 -7.627088577E-3
4.258037908E0 -1.243023500E-1 -1.062381938E-1 -7.452555932E-3
4.262037908E0 -1.024508253E-1 -8.419468254E-2 -3.490658477E-3
4.266037908E0 -7.614871860E-2 -4.925319180E-2 1.884955564E-3
4.270037908E0 -4.564036056E-2 -8.726646047E-5 3.316125600E-3
4.274037908E0 -1.014036313E-2 4.703662172E-2 -3.839724232E-4
4.278037908E0 2.124065720E-2 9.124581516E-2 -1.396263397E-4
4.282037908E0 4.792674258E-2 1.372352391E-1 3.054326167E-3
4.286037908E0 7.070329040E-2 1.819156706E-1 8.726646192E-3
4.290037908E0 8.686503768E-2 2.107310593E-1 1.350884791E-2
4.294037908E0 1.023810133E-1 2.108881325E-1 1.610938832E-2
4.298037908E0 1.130449772E-1 1.836784482E-1 1.994911395E-2
4.302037908E0 1.201833710E-1 1.228362694E-1 2.666863054E-2
4.306037908E0 1.184554994E-1 5.035274848E-2 3.413863853E-2
4.310037908E0 9.918706119E-2 -1.595230959E-2 3.895574808E-2
4.314037908E0 6.450736523E-2 -6.473426521E-2 4.141666368E-2
4.318037908E0 1.647590846E-2 -9.880308807E-2 3.769911081E-2
4.322037908E0 -3.743731230E-2 -1.370432526E-1 2.738421597E-2
4.326037908E0 -8.463101834E-2 -1.635897160E-1 1.717403904E-2
4.330037908E0 -1.234296858E-1 -1.724734306E-1 7.888888009E-3
4.334037908E0 -1.495049000E-1 -1.678483188E-1 1.099557383E-3
4.338037908E0 -1.548106968E-1 -1.601688713E-1 -4.712388851E-3
4.342037908E0 -1.406735331E-1 -1.477944851E-1 -9.093165398E-3
4.346037908E0 -1.156106070E-1 -1.117534339E-1 -1.490511186E-2
4.350037908E0 -8.168140799E-2 -6.469935179E-2 -1.928588748E-2
4.354037908E0 -4.302236438E-2 -1.150172018E-2 -1.621410809E-2
4.358037908E0 -5.532693584E-3 4.061381146E-2 -7.138396613E-3
4.362037908E0 3.190461919E-2 9.859365225E-2 5.445427261E-3
4.366037908E0 6.621779501E-2 1.500110477E-1 1.942551509E-2
4.370037908E0 9.896016866E-2 1.802925169E-1 3.166027367E-2
4.374037908E0 1.244943365E-1 1.862266362E-1 4.251622036E-2
4.378037908E0 1.468171030E-1 1.683719158E-1 5.002113804E-2
4.382037908E0 1.544616371E-1 1.191710830E-1 5.649630725E-2
4.386037908E0 1.502728462E-1 4.759512842E-2 6.644468755E-2
4.390037908E0 1.282642484E-1 -2.663372457E-2 7.944738865E-2
4.394037908E0 7.857472450E-2 -6.466444582E-2 8.930850029E-2
4.398037908E0 1.773254573E-2 -8.478809148E-2 9.007643908E-2
4.402037908E0 -4.899139330E-2 -1.022239327E-1 8.333947510E-2
4.406037908E0 -1.061683744E-1 -1.155058891E-1 7.632324845E-2
4.410037908E0 -1.474279612E-1 -1.311440468E-1 6.606071442E-2
4.414037908E0 -1.629962921E-1 -1.558579057E-1 5.496041849E-2
4.418037908E0 -1.604306698E-1 -1.739046127E-1 4.693190381E-2
4.422037908E0 -1.410924196E-1 -1.745503843E-1 4.679227620E-2
4.426037908E0 -1.134638563E-1 -1.506568193E-1 5.202826485E-2
4.430037908E0 -8.217009902E-2 -9.564404190E-2 5.356415361E-2
4.434037908E0 -4.871213809E-2 -3.488913178E-2 5.846852809E-2
4.438037908E0 -8.691739291E-3 1.298524998E-2 6.517059356E-2
4.442037908E0 3.410373256E-2 5.256931856E-2 7.442083955E-2
4.446037908E0 7.056365907E-2 8.651597053E-2 9.400343150E-2
4.450037908E0 9.421287477E-2 1.166054457E-1 1.236391217E-1
4.454037908E0 1.115265414E-1 1.300444752E-1 1.629788429E-1
4.458037908E0 1.237263903E-1 1.192234382E-1 2.006604970E-1
4.462037908E0 1.180366203E-1 1.028347984E-1 2.357590795E-1
4.466037908E0 9.410814941E-2 9.539970011E-2 2.682571113E-1
4.470037908E0 5.595525727E-2 8.234463632E-2 3.009471297E-1
4.474037908E0 2.038544603E-2 4.794419557E-2 3.317521811E-1
4.478037908E0 -1.038470864E-2 8.988445625E-3 3.643200397E-1
4.482037908E0 -4.038691893E-2 -2.780309506E-2 3.884928226E-1
4.486037908E0 -6.372196972E-2 -5.785766616E-2 4.048640132E-1
4.490037908E0 -7.822565734E-2 -8.887216449E-2 4.238706529E-1
4.494044158E0 -8.412487060E-2 -1.138303727E-1 4.426853061E-1
4.498037908E0 -8.625417203E-2 -1.176700965E-1 4.575380683E-1
4.502037908E0 -8.710937947E-2 -8.614945412E-2 4.696680903E-1
4.506037908E0 -8.119271696E-2 -4.310963303E-2 4.814316332E-1
4.510037908E0 -5.780530348E-2 -2.869321220E-2 4.865978062E-1
4.514037908E0 -1.858775690E-2 -5.188863724E-2 4.951499104E-1
4.518037908E0 1.226966456E-2 -6.042329967E-2 5.134932995E-1
4.522037908E0 2.769837528E-2 -2.457423508E-2 5.403888226E-1
4.526037908E0 3.364994749E-2 2.186897583E-2 5.722759962E-1
4.530037908E0 4.138175771E-2 4.029965401E-2 6.046518683E-1
4.534037908E0 4.776966199E-2 3.937462717E-2 6.384065151E-1
4.538037908E0 4.747295380E-2 3.850196302E-2 6.690195799E-1
4.542037908E0 3.958406672E-2 4.942772537E-2 7.016746998E-1
4.546037908E0 2.878047898E-2 5.035274848E-2 7.323401570E-1
4.550037908E0 2.054252476E-2 2.303834632E-2 7.570365667E-1
4.554037908E0 6.056292448E-3 4.136430100E-3 7.816980481E-1
4.558037908E0 -1.064650808E-2 4.014257342E-3 8.013679385E-1
4.562037908E0 -2.600540593E-2 2.160717547E-2 8.171806335E-1
4.566037908E0 -3.813544288E-2 3.827507049E-2 8.380198479E-1
4.570037908E0 -3.605850041E-2 9.250245057E-3 8.589463234E-1
4.574037908E0 -2.043780498E-2 -5.707226694E-2 8.776562810E-1
4.578037908E0 -1.349139493E-2 -1.026951745E-1 8.957902193E-1
4.582037908E0 -1.394518092E-2 -1.395739764E-1 9.166120291E-1
4.586037908E0 -3.043854237E-2 -1.361531317E-1 9.437170029E-1
4.590037908E0 -6.351253390E-2 -7.698646933E-2 9.742776752E-1
4.594037908E0 -8.843583614E-2 -1.914626174E-2 9.903870821E-1
4.598037908E0 -8.485791087E-2 -3.186971322E-2 9.959197640E-1
4.602037908E0 -5.724680051E-2 -1.004611477E-1 1.000544906E0
4.606037908E0 -3.677408770E-2 -1.346870512E-1 9.978221655E-1
4.610037908E0 -3.611086309E-2 -8.477064222E-2 9.961990118E-1
4.614050408E0 -4.693190381E-2 7.190756500E-3 1.002552032E0
4.618037908E0 -4.602433369E-2 6.195918843E-2 1.006479025E0
4.622037908E0 -2.035053819E-2 5.621705577E-2 1.003738880E0
4.626037908E0 1.404990070E-2 2.228785492E-2 9.974556565E-1
4.630037908E0 4.619886354E-2 -2.083923109E-2 9.864775538E-1
4.634037908E0 6.351253390E-2 -5.955063552E-2 9.784839153E-1
4.638037908E0 4.740314186E-2 -3.747221828E-2 9.902300239E-1
4.642037908E0 7.330382941E-4 3.860668465E-2 1.015292883E0
4.646037908E0 -3.059562109E-2 8.717919886E-2 1.032397151E0
4.650037908E0 -3.378957510E-2 5.169665068E-2 1.040896893E0
4.654037908E0 -1.893682219E-2 -4.269075394E-2 1.043270588E0
4.658037908E0 -9.320057929E-3 -1.072853878E-1 1.041315794E0
4.662037908E0 -2.382374369E-2 -9.297368675E-2 1.047424436E0
4.666037908E0 -4.825835302E-2 -3.918264061E-2 1.057460070E0
4.670037908E0 -6.082472578E-2 -1.260127686E-2 1.066710353E0
4.674037908E0 -5.234242231E-2 -3.609341010E-2 1.072435021E0
4.678037908E0 -3.342305496E-2 -6.576400250E-2 1.069712281E0
4.682037908E0 -1.898918301E-2 -6.735225767E-2 1.063271999E0
4.686037908E0 -1.387536712E-2 -4.078834504E-2 1.062032819E0
4.690037908E0 -1.523672417E-2 -9.913469665E-3 1.063830495E0
4.694037908E0 -1.471312530E-2 1.619665511E-2 1.064598441E0
4.698037908E0 -7.801621687E-3 2.195624262E-2 1.062102675E0
4.702037908E0 1.972222002E-3 1.216494478E-2 1.053166628E0
4.706037908E0 4.520402756E-3 4.625122529E-3 1.040443182E0
4.710037908E0 8.377580671E-4 9.878563695E-3 1.027789474E0
4.714037908E0 -6.283185445E-3 1.759291813E-2 1.012308359E0
4.718037908E0 -1.373574138E-2 4.869468510E-3 9.935112000E-1
4.722037908E0 -1.506219152E-2 -1.457349956E-2 9.762673378E-1
4.726037908E0 -1.947787404E-2 -2.281145379E-2 9.615367651E-1
4.730037908E0 -2.197369561E-2 -2.644173801E-2 9.464047551E-1
4.734037908E0 -2.759365551E-2 -3.164282069E-2 9.283057451E-1
4.738037908E0 -3.989822790E-2 -1.101302728E-2 9.118472934E-1
4.742037908E0 -4.719370231E-2 -4.537856148E-4 9.060353041E-1
4.746037908E0 -3.405137360E-2 -2.886774577E-2 9.054418802E-1
4.750037908E0 -1.403244678E-2 -6.267477572E-2 9.039234519E-1
4.754037908E0 -3.839724232E-4 -7.737044245E-2 8.996299505E-1
4.758037908E0 7.819075137E-3 -7.171557844E-2 8.968374133E-1
4.762037908E0 4.398229532E-3 -4.705407470E-2 9.076933861E-1
4.766037908E0 -7.155850064E-3 -1.907644793E-2 9.287420511E-1
4.770037908E0 -1.953023486E-2 9.878563695E-3 9.536653757E-1
4.774037908E0 -2.862340026E-2 3.445279971E-2 9.773145914E-1
4.778037908E0 -2.874557301E-2 2.991494350E-2 9.974905849E-1
4.782037908E0 -2.364921197E-2 8.377580671E-4 1.006967664E0
4.786037908E0 -1.750565320E-2 -2.136282995E-2 1.009742737E0
4.790037908E0 -2.054252476E-2 -4.014257342E-3 1.003983140E0
4.794037908E0 -3.008947708E-2 4.061381146E-2 9.939126372E-1
4.798037908E0 -2.612757869E-2 4.508185387E-2 9.793740511E-1
4.802037908E0 -5.811946467E-3 -7.470009383E-3 9.611527920E-1
4.806037908E0 1.453859266E-2 -7.068583369E-2 9.381842613E-1
4.810037908E0 1.399754081E-2 -7.391469181E-2 9.144129157E-1
4.814037908E0 4.537856148E-4 -3.319616243E-2 8.943765163E-1
4.818037908E0 -1.708677411E-2 1.132718660E-2 8.745495677E-1
4.822037908E0 -2.572615258E-2 2.417281084E-2 8.534311056E-1
4.826037908E0 -2.181661502E-2 4.485496320E-3 8.361697793E-1
4.830037908E0 -2.047271281E-2 -8.237954229E-3 8.173900247E-1
4.834037908E0 -2.103121765E-2 -2.932153177E-3 7.977376580E-1
4.838037908E0 -1.727875881E-2 -1.265363675E-2 7.697250843E-1
4.842037908E0 -1.747074537E-2 -1.333431527E-2 7.370001674E-1
4.846037908E0 -2.883283980E-2 2.597049996E-2 7.004355192E-1
4.850037908E0 -2.745402977E-2 3.869394958E-2 6.690894365E-1
4.854037908E0 -1.036725566E-2 -1.797689125E-3 6.350380182E-1
4.858037908E0 5.585053586E-4 -2.974040993E-2 6.014578938E-1
4.862037908E0 4.904375412E-3 -3.174753860E-2 5.696754456E-1
4.866037908E0 4.101523664E-3 -2.171189524E-2 5.388005972E-1
4.870037908E0 -4.694935866E-3 -5.707226694E-3 5.087809563E-1
4.874037908E0 -1.240929123E-2 1.411971357E-2 4.831769466E-1
4.878037908E0 -1.652826741E-2 2.186897583E-2 4.593532085E-1
4.882037908E0 -9.930923581E-3 -4.223696887E-3 4.340284765E-1
4.886037908E0 -3.228859045E-3 -2.916445211E-2 4.069584310E-1
4.890037908E0 -5.986479111E-3 -1.747074537E-2 3.752108812E-1
4.894044158E0 -1.305506285E-2 8.639379404E-3 3.392396569E-1
4.898037908E0 -1.370083448E-2 1.036725566E-2 3.016976118E-1
4.902037908E0 -9.634217247E-3 9.948377265E-4 2.652725875E-1
4.906037908E0 -8.272860199E-3 2.094395168E-4 2.313783020E-1
4.910037908E0 -2.356194425E-3 -5.078908056E-3 1.938013583E-1
4.914037908E0 4.136430100E-3 -1.237438433E-2 1.550899595E-1
4.918037908E0 3.595378250E-3 -2.059488557E-3 1.288925707E-1
4.922037908E0 2.827433404E-3 2.740166849E-3 1.095717698E-1
4.926037908E0 4.886921961E-3 -4.276056774E-3 9.007643908E-2
4.930037908E0 6.195918657E-3 -1.048942842E-2 6.813765317E-2
4.934037908E0 3.211405827E-3 -4.136430100E-3 5.173156038E-2
4.938037908E0 -1.151917269E-3 5.340707488E-3 4.052654654E-2
4.942037908E0 -5.323254038E-3 8.744099177E-3 3.429571912E-2
4.946037908E0 -3.996803891E-3 -7.504915702E-4 2.515019476E-2
4.950037908E0 -9.250245057E-4 -1.017526910E-2 1.884955540E-2
4.954037908E0 -2.984513063E-3 -2.251474652E-3 1.239183731E-2
4.958037908E0 -8.045967668E-3 1.937315427E-2 4.834562074E-3
4.962037908E0 -1.162389293E-2 3.406882659E-2 -4.485496320E-3
4.966037908E0 -1.286307629E-2 4.557054490E-2 -1.476548519E-2
4.970037908E0 -1.183333248E-2 5.745624006E-2 -1.865756884E-2
4.974037908E0 -6.894050632E-3 6.852162629E-2 -1.635373570E-2
4.978037908E0 1.151917269E-3 7.248352468E-2 -9.581857361E-3
4.982037908E0 1.633628085E-2 5.696754530E-2 -1.640609466E-3
4.986037908E0 3.686135262E-2 1.813396998E-2 9.599311277E-3
4.990037908E0 5.021312088E-2 -1.939060725E-2 2.200860158E-2
4.994037908E0 5.279621109E-2 -4.199262336E-2 3.413863853E-2
4.998037908E0 4.052654654E-2 -4.337143153E-2 4.647811875E-2
5.002039470E0 1.548107062E-2 -2.670353837E-2 5.811946467E-2
5.006041033E0 -7.749261800E-3 -2.036799304E-2 7.379251719E-2
5.010037908E0 -2.405063622E-2 -4.265584797E-2 8.918632567E-2
5.014037908E0 -3.476695716E-2 -6.506587565E-2 9.635962546E-2
5.018037908E0 -4.523893446E-2 -6.805038452E-2 9.779080003E-2
5.022037908E0 -5.218534544E-2 -5.632177368E-2 8.927359432E-2
5.026041033E0 -4.768239334E-2 -5.007349700E-2 7.335618883E-2
5.030037908E0 -3.401646763E-2 -6.094689667E-2 5.295328796E-2
5.034037908E0 -2.289872058E-2 -5.120795965E-2 2.879793197E-2
5.038037908E0 -2.541199327E-2 -1.082104165E-3 1.195550524E-2
5.042037908E0 -2.640683204E-2 6.469935179E-2 4.258603323E-3
5.046037908E0 -1.583013684E-2 9.711012244E-2 -2.984513063E-3
5.050037908E0 8.744099177E-3 8.417722583E-2 -1.391027402E-2
5.054037908E0 3.820525855E-2 6.928957254E-2 -2.565634064E-2
5.058037908E0 5.777039751E-2 7.354817539E-2 -2.541199327E-2
5.062037908E0 7.297221571E-2 7.124433666E-2 -1.480039209E-2
5.066037908E0 8.670795709E-2 3.452261165E-2 -1.797689125E-3
5.070037908E0 9.557422996E-2 -3.466223925E-2 1.151917316E-2
5.074037908E0 8.285077661E-2 -9.025097638E-2 2.087413706E-2
5.078037908E0 5.138249323E-2 -1.035503820E-1 2.600540593E-2
5.082037908E0 3.124139272E-3 -8.082620054E-2 3.035127558E-2
5.086037908E0 -5.297074094E-2 -3.555235639E-2 3.961897269E-2
5.090037908E0 -8.794713765E-2 -2.804744057E-2 5.047492310E-2
5.094037908E0 -9.285151958E-2 -9.368927032E-2 5.270894244E-2
5.098037908E0 -8.445648104E-2 -1.575857848E-1 4.876450077E-2
5.102037908E0 -7.970918715E-2 -1.551772207E-1 3.614576906E-2
5.106037908E0 -8.058185130E-2 -9.410814941E-2 2.382374369E-2
5.110037908E0 -7.480481267E-2 -3.193952516E-2 1.457349956E-2
5.114050408E0 -5.660102889E-2 8.813912980E-3 9.005898610E-3
5.118037908E0 -2.745402977E-2 3.881612420E-2 5.619960371E-3
5.122037908E0 5.131267942E-3 7.419394702E-2 -1.274090377E-3
5.126037908E0 3.558726236E-2 1.073551998E-1 -9.407324716E-3
5.130037908E0 6.853908300E-2 1.265712827E-1 -9.581857361E-3
5.134037908E0 1.006007791E-1 1.246514171E-1 -4.956734832E-3
5.138037908E0 1.228362694E-1 1.024857312E-1 1.797689125E-3
5.142037908E0 1.322436035E-1 6.101670861E-2 9.302604944E-3
5.146037908E0 1.234122291E-1 1.839577034E-2 1.652826741E-2
5.150037908E0 9.281660616E-2 2.146754880E-3 2.366666496E-2
5.154037908E0 4.026474431E-2 1.223475765E-2 2.944370359E-2
5.158037908E0 -9.424777701E-3 8.604473434E-3 3.471459821E-2
5.162037908E0 -4.752531648E-2 -3.642502055E-2 3.534291685E-2
5.166037908E0 -7.325147092E-2 -9.623745829E-2 3.279473633E-2
5.170037908E0 -8.990190923E-2 -1.328020990E-1 2.836159989E-2
5.174037908E0 -1.019097716E-1 -1.356993467E-1 1.788962446E-2
5.178037908E0 -1.046150327E-1 -1.204800755E-1 4.764748737E-3
5.182037908E0 -9.506808221E-2 -1.047546640E-1 -4.520402756E-3
5.186037908E0 -8.052948862E-2 -8.110544831E-2 -9.197885171E-3
5.190037908E0 -5.958554149E-2 -4.122467712E-2 -1.057669520E-2
5.194037908E0 -3.694862127E-2 1.583013684E-2 -8.377579972E-3
5.198037908E0 -1.343903504E-2 6.806784123E-2 -6.597344764E-3
5.202037908E0 2.319542505E-2 9.541714936E-2 -5.375613924E-3
5.206037908E0 6.140068173E-2 1.001120880E-1 -6.108652335E-3
5.210037908E0 9.409070015E-2 1.002691686E-1 -4.799655639E-3
5.214037908E0 1.163087413E-1 9.909979254E-2 -1.902408898E-3
5.218037908E0 1.246688664E-1 9.550441802E-2 8.028514567E-4
5.222037908E0 1.182635128E-1 6.674139202E-2 3.159045940E-3
5.226037908E0 1.021366641E-1 1.841322333E-2 3.333578818E-3
5.230037908E0 6.529276818E-2 -8.063420653E-3 2.094395168E-4
5.234037908E0 1.787217148E-2 -6.963863503E-3 -2.530727303E-3
5.238037908E0 -2.759365551E-2 -1.987930015E-2 -1.078613475E-2
5.242037908E0 -6.159266829E-2 -5.291838199E-2 -1.911135577E-2
5.246037908E0 -8.234463632E-2 -9.361945838E-2 -2.474876866E-2
5.250037908E0 -9.452702850E-2 -1.122421250E-1 -2.907718532E-2
5.254037908E0 -9.695304185E-2 -1.125562862E-1 -2.614503168E-2
5.258037908E0 -8.871508390E-2 -1.034456640E-1 -1.785471849E-2
5.262037908E0 -7.044149190E-2 -8.768533915E-2 -4.555309191E-3
5.266037908E0 -5.047492310E-2 -6.445501000E-2 1.110029407E-2
5.270037908E0 -3.141592816E-2 -3.131120652E-2 2.241002768E-2
5.274037908E0 -1.110029407E-2 1.150172018E-2 2.281145379E-2
5.278037908E0 1.134464052E-2 4.661774263E-2 1.223475765E-2
5.282037908E0 3.782128543E-2 6.932447851E-2 -1.815142459E-3
5.286037908E0 6.340780854E-2 7.719591260E-2 -1.527163107E-2
5.290037908E0 8.196066320E-2 7.955210656E-2 -2.630211227E-2
5.294037908E0 8.997172117E-2 7.443828881E-2 -3.070034087E-2
5.298037908E0 9.100146592E-2 5.536184460E-2 -2.837905288E-2
5.302037908E0 7.744026184E-2 3.995058686E-2 -2.265437320E-2
5.306037908E0 4.783947393E-2 3.897320107E-2 -1.722639985E-2
5.310037908E0 1.902408898E-2 3.120648675E-2 -1.567305624E-2
5.314037908E0 -5.916666240E-3 2.234021435E-3 -1.827359758E-2
5.318037908E0 -2.837905288E-2 -3.436553106E-2 -2.663372457E-2
5.322037908E0 -4.433136433E-2 -6.501351297E-2 -3.227113932E-2
5.326037908E0 -5.977752805E-2 -7.257079333E-2 -3.316125646E-2
5.330037908E0 -7.103490084E-2 -6.246533245E-2 -2.766346931E-2
5.334037908E0 -7.276277989E-2 -5.635667965E-2 -1.448623277E-2
5.338037908E0 -6.599090248E-2 -4.785692692E-2 2.932153177E-3
5.342037908E0 -5.459389836E-2 -2.637192421E-2 1.757546514E-2
5.346037908E0 -3.911282867E-2 4.363323096E-4 2.605776489E-2
5.350037908E0 -1.823868975E-2 2.972295694E-2 2.481858246E-2
5.354037908E0 6.178465672E-3 5.482079089E-2 1.380555425E-2
5.358037908E0 2.909463830E-2 7.267551124E-2 -5.061454722E-4
5.362037908E0 5.208062381E-2 7.326892018E-2 -1.748819835E-2
5.366037908E0 7.630579174E-2 5.895722285E-2 -3.321361542E-2
5.370037908E0 8.639379591E-2 4.316199198E-2 -3.956661373E-2
5.374037908E0 8.239699155E-2 3.452261165E-2 -3.504621238E-2
5.378037908E0 6.389650702E-2 3.679154068E-2 -2.965314314E-2
5.382037908E0 3.618067503E-2 4.026474431E-2 -2.733185515E-2
5.386037908E0 8.325220086E-3 2.733185515E-2 -2.853613347E-2
5.390037908E0 -1.172861271E-2 -3.106686054E-3 -3.216641769E-2
5.394037908E0 -2.944370359E-2 -4.164355621E-2 -3.642502055E-2
5.398037908E0 -4.520402849E-2 -6.241297349E-2 -3.663446009E-2
5.402037908E0 -5.668829381E-2 -5.576327071E-2 -3.293436393E-2
5.406037908E0 -6.105161831E-2 -5.099852011E-2 -2.579596639E-2
5.410037908E0 -6.052801758E-2 -4.571017250E-2 -1.068141498E-2
5.414037908E0 -5.511749908E-2 -2.747148275E-2 7.993607782E-3
5.418037908E0 -4.858996719E-2 7.068583276E-3 2.249729447E-2
5.422037908E0 -3.260274976E-2 3.433062509E-2 3.262020275E-2
5.426037908E0 -7.644542027E-3 4.445353523E-2 3.270747140E-2
5.430037908E0 1.870992966E-2 4.586725309E-2 2.413790300E-2
5.434037908E0 3.991568089E-2 6.171484292E-2 1.150172018E-2
5.438037908E0 5.295328796E-2 8.859290928E-2 -5.759586580E-3
5.442037908E0 5.981243402E-2 9.730210900E-2 -2.352703735E-2
5.446037908E0 6.536258012E-2 7.848745584E-2 -3.808308393E-2
5.450037908E0 6.892304868E-2 4.166100919E-2 -4.986405745E-2
5.454037908E0 6.609562039E-2 -4.380776547E-3 -6.166248396E-2
5.458037908E0 5.331980810E-2 -3.988077492E-2 -6.986553222E-2
5.462037908E0 2.530727349E-2 -4.750786349E-2 -7.005751878E-2
5.466037908E0 -1.209513191E-2 -2.583087236E-2 -6.136577576E-2
5.470037908E0 -4.597197101E-2 -1.034980267E-2 -5.291838199E-2
5.474037908E0 -6.532767415E-2 -2.647664398E-2 -4.604178667E-2
5.478037908E0 -6.948155910E-2 -6.037093699E-2 -4.365068302E-2
5.482037908E0 -6.363470107E-2 -9.150761366E-2 -4.092797264E-2
5.486037908E0 -5.742133036E-2 -8.806931227E-2 -3.405137360E-2
5.490037908E0 -5.370378122E-2 -5.012585595E-2 -2.186897583E-2
5.494037908E0 -5.242969096E-2 7.941247895E-3 2.199114766E-3
5.498037908E0 -4.309218004E-2 5.141739920E-2 2.055997774E-2
5.502037908E0 -1.911135577E-2 6.878342479E-2 2.909463830E-2
5.506037908E0 7.749261800E-3 7.628834248E-2 2.787290886E-2
5.510037908E0 3.162536770E-2 9.419541806E-2 1.579522900E-2
5.514037908E0 5.110324174E-2 1.211433038E-1 7.504915702E-4
5.518037908E0 6.309365481E-2 1.420523524E-1 -1.670280099E-2
5.522037908E0 7.435102761E-2 1.327672005E-1 -3.420845419E-2
5.526037908E0 8.555603772E-2 9.512044489E-2 -4.810127243E-2
5.530037908E0 8.850564808E-2 4.386012256E-2 -5.893976986E-2
5.534037908E0 7.902850956E-2 -4.852015525E-3 -7.230898738E-2
5.538037908E0 5.759586394E-2 -4.646066576E-2 -8.122762293E-2
5.542037908E0 2.672099136E-2 -7.735299319E-2 -7.857472450E-2
5.546037908E0 -1.429424621E-2 -8.089601249E-2 -7.035422325E-2
5.550037908E0 -5.496041849E-2 -6.780604273E-2 -6.023131311E-2
5.554037908E0 -8.799950033E-2 -5.382595211E-2 -5.066690966E-2
5.558037908E0 -1.003738865E-1 -6.356488913E-2 -4.230678082E-2
5.562037908E0 -9.653416276E-2 -8.976228535E-2 -3.426081315E-2
5.566037908E0 -8.407250792E-2 -9.557422996E-2 -2.389355749E-2
5.570037908E0 -6.848672032E-2 -7.091272622E-2 -7.033676840E-3
5.574037908E0 -5.567600206E-2 -1.778490469E-2 1.300270297E-2
5.578037908E0 -3.820525855E-2 3.642502055E-2 2.864085324E-2
5.582037908E0 -1.151917316E-2 6.953391433E-2 3.556980938E-2
5.586037908E0 1.485275198E-2 9.409070015E-2 3.166027367E-2
5.590037908E0 3.874630854E-2 1.232376993E-1 1.528908405E-2
5.594044158E0 6.181956083E-2 1.504124701E-1 -1.199041214E-2
5.598037908E0 8.004079759E-2 1.602212191E-1 -3.689625859E-2
5.602037908E0 9.487609565E-2 1.486322433E-1 -5.874778330E-2
5.606037908E0 1.037074625E-1 1.147553995E-1 -7.211700082E-2
5.610037908E0 1.091877967E-1 5.518731102E-2 -8.656833321E-2
5.614050408E0 9.964084625E-2 -2.055997774E-2 -1.031489596E-1
5.618037908E0 7.396705449E-2 -6.506587565E-2 -1.125911921E-1
5.622037908E0 2.481858246E-2 -6.595598906E-2 -1.089085415E-1
5.626037908E0 -3.103195317E-2 -4.855506122E-2 -9.318313003E-2
5.630037908E0 -8.042477071E-2 -3.991568089E-2 -7.415904105E-2
5.634037908E0 -1.086467430E-1 -5.152212083E-2 -5.806710571E-2
5.638037908E0 -1.134463996E-1 -7.953465730E-2 -3.986331820E-2
5.642037908E0 -1.026428118E-1 -1.109505817E-1 -2.504547499E-2
5.646037908E0 -8.716174215E-2 -1.137780100E-1 -5.218534265E-3
5.650037908E0 -7.665485889E-2 -6.527531147E-2 1.649336144E-2
5.654037908E0 -6.400122494E-2 1.047197584E-4 3.420845419E-2
5.658037908E0 -3.467969224E-2 3.330088034E-2 3.824016452E-2
5.662037908E0 6.702064537E-3 3.904301673E-2 2.363175713E-2
5.666037908E0 4.009021446E-2 5.511749908E-2 3.996803891E-3
5.670037908E0 6.143558770E-2 9.363691509E-2 -1.734857261E-2
5.674037908E0 8.309512585E-2 1.135336682E-1 -3.572688997E-2
5.678037908E0 1.060462072E-1 8.606218547E-2 -4.925319180E-2
5.682037908E0 1.203404516E-1 3.141592816E-2 -6.557202339E-2
5.686037908E0 1.166927144E-1 -1.658062800E-3 -7.360053062E-2
5.690037908E0 8.279842138E-2 6.806784077E-4 -7.297221571E-2
5.694044158E0 3.778637946E-2 1.052433532E-2 -5.717698485E-2
5.698037908E0 -1.200786512E-2 1.308996975E-2 -3.782128543E-2
5.702037908E0 -5.241223797E-2 1.291543595E-3 -1.698205434E-2
5.706037908E0 -7.590436935E-2 -2.782054804E-2 -1.605702913E-3
5.710037908E0 -8.773770183E-2 -5.925392732E-2 5.846852902E-3
5.714037908E0 -9.456194192E-2 -5.632177368E-2 1.425934024E-2
5.718037908E0 -9.833184630E-2 -2.165953629E-2 2.548180707E-2
5.722037908E0 -8.592256159E-2 8.028514567E-4 3.174753860E-2
5.726037908E0 -5.918411538E-2 6.195918657E-3 2.494075522E-2
5.730037908E0 -2.827433310E-2 2.141519077E-2 1.096066739E-2
5.734037908E0 -6.195918657E-3 6.677629799E-2 -3.508111695E-3
5.738037908E0 1.336922217E-2 1.153662652E-1 -1.857030392E-2
5.742037908E0 4.616395757E-2 1.253844500E-1 -2.883283980E-2
5.746037908E0 8.272860944E-2 9.197884798E-2 -3.509857133E-2
5.750037908E0 1.133591309E-1 4.380776361E-2 -4.471533373E-2
5.754037908E0 1.272170544E-1 9.773843922E-4 -5.986479297E-2
5.758037908E0 1.201484650E-1 -3.621558100E-2 -7.239625603E-2
5.762037908E0 8.730136603E-2 -3.736750036E-2 -8.424704522E-2
5.766037908E0 3.956661373E-2 -2.150245570E-2 -8.630653471E-2
5.770037908E0 -3.281218931E-3 -3.104940802E-2 -7.389724255E-2
5.774037908E0 -4.424409568E-2 -5.450663343E-2 -5.288347602E-2
5.778037908E0 -7.977899909E-2 -6.558947265E-2 -2.979277074E-2
5.782037908E0 -1.004960611E-1 -7.702138275E-2 -7.208209950E-3
5.786037908E0 -1.046848446E-1 -9.283406287E-2 9.965829551E-3
5.790037908E0 -1.015607119E-1 -8.674286306E-2 1.940806210E-2
5.794037908E0 -9.365436435E-2 -5.248204991E-2 2.609267272E-2
5.798037908E0 -8.061675727E-2 -1.069886796E-2 2.542944625E-2
5.802037908E0 -5.419247225E-2 2.455678210E-2 1.336922217E-2
5.806037908E0 -1.764527895E-2 4.761258140E-2 -1.378810150E-3
5.810037908E0 2.181661502E-2 6.986553222E-2 -1.019272301E-2
5.814037908E0 6.162757427E-2 8.651597053E-2 -1.729621366E-2
5.818037908E0 9.609782696E-2 8.335692436E-2 -2.473131567E-2
5.822037908E0 1.243547052E-1 5.138249323E-2 -3.207915276E-2
5.826037908E0 1.422792375E-1 -4.834562074E-3 -3.970624134E-2
5.830037908E0 1.340238303E-1 -4.633849114E-2 -4.441862926E-2
5.834037908E0 9.632471949E-2 -3.867649660E-2 -4.488986731E-2
5.838037908E0 4.387757555E-2 -6.806783844E-3 -3.946189582E-2
5.842037908E0 -4.101523664E-3 -8.813912980E-3 -2.403318323E-2
5.846037908E0 -4.207988828E-2 -5.799729005E-2 -1.007054932E-2
5.850037908E0 -6.986553222E-2 -1.088038236E-1 -1.047197584E-4
5.854037908E0 -9.384635091E-2 -1.327672005E-1 4.433136433E-3
5.858037908E0 -1.107760444E-1 -1.250004768E-1 8.203047328E-4
5.862037908E0 -1.185078546E-1 -1.008102149E-1 -6.300638430E-3
5.866037908E0 -1.047372073E-1 -8.876744658E-2 -1.117010694E-2
5.870037908E0 -7.913322747E-2 -7.422885299E-2 -1.019272301E-2
5.874037908E0 -5.213298276E-2 -3.417354822E-2 -3.752457909E-3
5.878037908E0 -2.733185515E-2 1.586504281E-2 1.518436475E-3
5.882037908E0 4.712388909E-4 5.904448777E-2 6.213372108E-3
5.886037908E0 3.724532574E-2 8.131489158E-2 8.045967668E-3
5.890041033E0 7.333873212E-2 7.733553648E-2 9.267698042E-3
5.894041033E0 1.038296372E-1 6.061528623E-2 9.145525284E-3
5.898037908E0 1.193107069E-1 4.314453900E-2 1.104793418E-2
5.902037908E0 1.141794398E-1 3.227113932E-2 1.441641990E-2
5.906037908E0 8.752825856E-2 4.370304570E-2 2.101376466E-2
5.910037908E0 4.565781355E-2 7.201228291E-2 2.951351739E-2
5.914037908E0 8.063420653E-3 7.374016196E-2 3.473205119E-2
5.918037908E0 -1.720894687E-2 2.509783395E-2 3.520328924E-2
5.922037908E0 -3.389429301E-2 -3.565707803E-2 2.885029279E-2
5.926037908E0 -4.921828583E-2 -7.468263805E-2 2.235766686E-2
5.930037908E0 -6.075491011E-2 -8.878489584E-2 1.993165910E-2
5.934037908E0 -6.798057258E-2 -9.091419727E-2 2.064724453E-2
5.938037908E0 -6.639232486E-2 -9.253735840E-2 2.413790300E-2
5.942037908E0 -5.949827284E-2 -7.778932154E-2 2.865830623E-2
5.946037908E0 -5.304055661E-2 -4.199262336E-2 3.000221029E-2
5.950037908E0 -3.813544288E-2 -2.059488557E-2 2.419026382E-2
5.954037908E0 -1.254891697E-2 -1.804670505E-2 1.333431527E-2
5.958037908E0 8.709193207E-3 -8.813912980E-3 3.560471581E-3
5.962037908E0 2.420771681E-2 1.689478755E-2 -1.378810150E-3
5.966037908E0 3.260274976E-2 5.192354321E-2 -1.047197584E-4
5.970037908E0 3.839724511E-2 7.297221571E-2 8.482299745E-3
5.974037908E0 4.698426276E-2 6.522295624E-2 2.052507177E-2
5.978037908E0 5.539675057E-2 3.939208016E-2 3.389429301E-2
5.982037908E0 5.459389836E-2 2.000147291E-2 4.522148147E-2
5.986037908E0 4.338888451E-2 1.103048120E-2 5.328490213E-2
5.990037908E0 2.300344035E-2 1.623156248E-3 6.276203692E-2
5.994037908E0 1.884955564E-3 -1.300270297E-2 6.448991597E-2
5.998037908E0 -1.776745170E-2 -3.412118554E-2 6.749188155E-2
6.002037908E0 -3.162536770E-2 -5.860815570E-2 7.127925009E-2
6.006037908E0 -4.305727407E-2 -7.555530220E-2 7.902850956E-2
6.010037908E0 -5.567600206E-2 -7.349581271E-2 9.204866737E-2
6.014037908E0 -5.897467583E-2 -5.925392732E-2 1.022239327E-1
6.018037908E0 -5.667084083E-2 -4.256857932E-2 1.104444340E-1
6.022037908E0 -4.433136433E-2 -3.295181692E-2 1.162040234E-1
6.026037908E0 -2.710496262E-2 -2.323033288E-2 1.192059889E-1
6.030037908E0 -1.403244678E-2 -9.948377265E-4 1.223999411E-1
6.034037908E0 -5.410520826E-4 2.558652684E-2 1.287878454E-1
6.038037908E0 1.589994878E-2 3.930481523E-2 1.435533315E-1
6.042037908E0 3.178244457E-2 4.092797264E-2 1.626123190E-1
6.046037908E0 4.377285764E-2 3.637266159E-2 1.886526346E-1
6.050037908E0 5.080653355E-2 2.014109865E-2 2.198242247E-1
6.054037908E0 4.632103816E-2 3.089232836E-3 2.592686713E-1
6.058037908E0 3.340560198E-2 -7.801621687E-3 2.974215448E-1
6.062037908E0 1.092576142E-2 -1.307251584E-2 3.335324228E-1
6.066037908E0 -1.193805225E-2 -1.682497375E-2 3.673568964E-1
6.070037908E0 -3.192207217E-2 -2.670353837E-2 3.985982835E-1
6.074037908E0 -4.735078290E-2 -4.297000542E-2 4.284085035E-1
6.078037908E0 -5.469861999E-2 -5.925392732E-2 4.584805369E-1
6.082037908E0 -5.614724010E-2 -6.728244573E-2 4.893379509E-1
6.086037908E0 -5.352924764E-2 -6.319837272E-2 5.145579576E-1
6.090037908E0 -4.878195375E-2 -4.436627030E-2 5.361651182E-1
6.094044158E0 -3.820525855E-2 -2.576106042E-2 5.579293966E-1
6.098037908E0 -2.490584925E-2 -1.797689125E-3 5.727821589E-1
6.102037908E0 -1.075122785E-2 3.288200125E-2 5.828177929E-1
6.106037908E0 3.298672382E-3 5.927138031E-2 5.892056823E-1
6.110037908E0 2.427753061E-2 6.691592187E-2 5.965709686E-1
6.114050408E0 4.482005537E-2 4.993386939E-2 6.058735847E-1
6.118037908E0 5.965535343E-2 2.261946723E-2 6.220004559E-1
6.122037908E0 6.187192351E-2 4.014257342E-3 6.471157074E-1
6.126037908E0 4.530874640E-2 1.150172018E-2 6.785141826E-1
6.130037908E0 1.176351868E-2 3.996803984E-2 7.073295712E-1
6.134037908E0 -1.293289009E-2 5.091125518E-2 7.369652987E-1
6.138037908E0 -2.857103944E-2 1.960004680E-2 7.648730874E-1
6.142037908E0 -3.654719517E-2 -4.036946595E-2 7.899011374E-1
6.146037908E0 -4.344124347E-2 -8.662068844E-2 8.152433038E-1
6.150037908E0 -5.621705577E-2 -9.025097638E-2 8.433780074E-1
6.154037908E0 -6.890559942E-2 -7.955210656E-2 8.738863468E-1
6.158037908E0 -7.175048441E-2 -7.391469181E-2 9.015847445E-1
6.162037908E0 -6.647959352E-2 -6.447245926E-2 9.286547899E-1
6.166037908E0 -5.396557972E-2 -5.176646635E-2 9.553059340E-1
6.170037908E0 -3.654719517E-2 -3.761184588E-2 9.781872034E-1
6.174037908E0 -1.815142483E-2 -2.488839440E-2 9.942616820E-1
6.178037908E0 -1.012290944E-3 -1.525417715E-2 1.002063274E0
6.182037908E0 1.143190637E-2 -7.155850180E-4 1.002429843E0
6.186037908E0 1.647590846E-2 2.024581842E-2 1.007194638E0
6.190037908E0 1.719149388E-2 3.309144080E-2 1.015799046E0
6.194037908E0 1.556833647E-2 4.651302472E-2 1.023024678E0
6.198037908E0 1.333431527E-2 5.333726108E-2 1.027178645E0
6.202037908E0 1.380555425E-2 4.399975017E-2 1.020424247E0
6.206037908E0 1.408480667E-2 2.165953629E-2 1.005571485E0
6.210037908E0 8.883725852E-3 2.583087189E-3 9.914517403E-1
6.214037908E0 1.954768784E-3 -2.778564207E-2 9.748361707E-1
6.218037908E0 1.047197497E-3 -6.855653226E-2 9.567894936E-1
6.222037908E0 -5.166174378E-3 -7.456046343E-2 9.409593344E-1
6.226037908E0 -1.555088349E-2 -4.569271952E-2 9.222145081E-1
6.230037908E0 -1.343903504E-2 -2.455678210E-2 8.997346759E-1
6.234037908E0 3.193952609E-3 -3.440044075E-2 8.700815439E-1
6.238037908E0 2.321287990E-2 -5.701990798E-2 8.442855477E-1
6.242037908E0 3.745476529E-2 -6.956882030E-2 8.203920126E-1
6.246037908E0 4.960225895E-2 -7.251843065E-2 8.027118444E-1
6.250037908E0 4.797910154E-2 -5.527457595E-2 7.904421687E-1
6.254037908E0 3.186971322E-2 -6.038838997E-3 7.833212018E-1
6.258037908E0 1.802925020E-2 3.303908184E-2 7.742455006E-1
6.262037908E0 2.043780498E-2 2.759365551E-2 7.645065784E-1
6.266037908E0 2.483603545E-2 3.228859045E-3 7.593927383E-1
6.270037908E0 2.523746155E-2 -1.364847459E-2 7.567223907E-1
6.274037908E0 2.188642882E-2 -2.783800103E-2 7.552562952E-1
6.278037908E0 1.528908405E-2 -2.583087236E-2 7.536855340E-1
6.282037908E0 -2.059488557E-3 5.358160939E-3 7.525161505E-1
6.286037908E0 -2.438225038E-2 4.593706504E-2 7.490603924E-1
6.290037908E0 -3.005456924E-2 4.961971194E-2 7.401766777E-1
6.294037908E0 -2.670353837E-2 2.387610450E-2 7.282211781E-1
6.298037908E0 -2.762856148E-2 1.382300723E-2 7.144156098E-1
6.302037908E0 -3.193952516E-2 2.131047100E-2 7.028266191E-1
6.306037908E0 -2.960078418E-2 1.832595654E-2 6.954438686E-1
6.310037908E0 -2.387610450E-2 -2.146754880E-3 6.945711970E-1
6.314037908E0 -1.935570128E-2 -2.619739249E-2 7.050257325E-1
6.318037908E0 -3.155555204E-2 -2.122320421E-2 7.315198183E-1
6.322037908E0 -5.733406544E-2 2.207841538E-2 7.795338631E-1
6.326037908E0 -8.815658092E-2 6.595598906E-2 8.351225853E-1
6.330037908E0 -1.109505817E-1 7.454301417E-2 8.941845298E-1
6.334037908E0 -1.175304726E-1 -1.500983140E-3 9.285849929E-1
6.338037908E0 -8.744099736E-2 -1.368687153E-1 9.250419736E-1
6.342037908E0 -8.541641384E-2 -1.548106968E-1 9.054418802E-1
6.346037908E0 -8.916886896E-2 -8.981464058E-2 8.831540346E-1
6.350037908E0 -8.246680349E-2 -2.221804112E-2 8.756666183E-1
6.354037908E0 -5.422737822E-2 3.525565146E-3 8.857720494E-1
6.358037908E0 -3.192207217E-2 2.644173801E-2 9.015148878E-1
6.362037908E0 -2.216568217E-3 2.799508162E-2 9.126850367E-1
6.366037908E0 3.054326214E-2 6.614797749E-3 9.163676500E-1
6.370037908E0 3.518583626E-2 3.323106840E-2 9.090372920E-1
6.374037908E0 2.988003753E-2 6.675884128E-2 8.958426118E-1
6.378037908E0 3.195697814E-2 6.073745713E-2 8.902750015E-1
6.382037908E0 2.651155181E-2 5.235987902E-2 8.925963044E-1
6.386037908E0 1.679006778E-2 3.817034885E-2 8.935038447E-1
6.390037908E0 9.442231618E-3 1.050688233E-2 8.914792538E-1
6.394037908E0 -2.687806962E-3 -5.131267942E-3 8.854055405E-1
6.398037908E0 -1.549852360E-2 -1.537635084E-2 8.722108603E-1
6.402037908E0 -3.087487444E-2 -1.685987972E-2 8.552287817E-1
6.406037908E0 -4.379031062E-2 -2.366666496E-2 8.444601297E-1
6.410037908E0 -4.307472706E-2 -6.157521531E-2 8.320333362E-1
6.414037908E0 -4.061381146E-2 -8.733627200E-2 8.146498799E-1
6.418037908E0 -4.555309191E-2 -7.581710070E-2 8.052774668E-1
6.422037908E0 -4.038691893E-2 -5.607742816E-2 8.019438982E-1
6.426037908E0 -3.269001842E-2 -4.595451802E-2 7.991338968E-1
6.430037908E0 -2.829178795E-2 -3.413863853E-2 7.898138165E-1
6.434037908E0 -2.036799304E-2 -2.925171889E-2 7.782074213E-1
6.438037908E0 -9.721484035E-3 -2.768092230E-2 7.601083517E-1
6.442037908E0 -5.881759338E-3 -8.482299745E-3 7.408049703E-1
6.446037908E0 -6.248278543E-3 2.527236752E-2 7.211526036E-1
6.450037908E0 -5.131267942E-3 5.969025940E-2 6.991788745E-1
6.454037908E0 -7.696901914E-3 8.791223168E-2 6.702762246E-1
6.458037908E0 -6.876597181E-3 9.819222242E-2 6.380400062E-1
6.462037908E0 1.422443334E-2 5.167919770E-2 5.999918580E-1
6.466037908E0 3.663446009E-2 -3.066543490E-2 5.631130338E-1
6.470037908E0 4.698426276E-2 -9.311331809E-2 5.235463977E-1
6.474037908E0 3.375466913E-2 -8.299040794E-2 4.972442985E-1
6.478037908E0 -3.717551241E-3 2.495820867E-3 4.901058972E-1
6.482037908E0 -3.235840425E-2 5.220279843E-2 4.799830019E-1
6.486037908E0 -3.228859231E-2 9.267698042E-3 4.689001441E-1
6.490037908E0 -2.923426405E-2 -4.776966199E-2 4.584980011E-1
6.494044158E0 -3.174753860E-2 -6.836454570E-2 4.447971582E-1
6.498037908E0 -3.420845419E-2 -7.913322747E-2 4.251098335E-1
6.502037908E0 -4.506440088E-2 -6.845181435E-2 3.996629417E-1
6.506037908E0 -6.462953985E-2 -8.011061698E-3 3.699923456E-1
6.510037908E0 -7.637561113E-2 7.150614262E-2 3.419274390E-1
6.514037908E0 -5.237733200E-2 6.855653226E-2 3.087312877E-1
6.518037908E0 -2.268928103E-3 -1.881464943E-2 2.765823305E-1
6.522037908E0 4.843288660E-2 -1.178620830E-1 2.463706732E-1
6.526037908E0 7.524114102E-2 -1.485973299E-1 2.193878889E-1
6.530037908E0 6.550220400E-2 -1.013163626E-1 2.002765238E-1
6.534037908E0 3.525565192E-2 -1.429424621E-2 1.953023374E-1
6.538037908E0 -2.146754880E-3 6.761405617E-2 2.003463507E-1
6.542037908E0 -2.216568217E-2 8.662068844E-2 1.976061761E-1
6.546037908E0 -1.398008689E-2 2.307325229E-2 1.895078421E-1
6.550037908E0 -3.665191471E-4 -6.853908300E-2 1.813746095E-1
6.554037908E0 1.570796303E-4 -1.108633131E-1 1.744282097E-1
6.558037908E0 -1.864011586E-2 -7.223917544E-2 1.721592695E-1
6.562037908E0 -4.464552179E-2 2.024581889E-3 1.735380888E-1
6.566037908E0 -5.942846090E-2 4.977678880E-2 1.698379815E-1
6.570039470E0 -5.379104614E-2 5.286602303E-2 1.598547101E-1
6.574041033E0 -3.289945796E-2 3.857177496E-2 1.451939344E-1
6.578037908E0 -7.871435024E-3 2.040289901E-2 1.287354827E-1
6.582037908E0 1.804670505E-2 -4.188789986E-3 1.044230461E-1
6.586037908E0 4.108504951E-2 -1.621410809E-2 7.548549026E-2
6.590037908E0 4.801400751E-2 5.305801053E-3 5.349434167E-2
6.594041033E0 4.813618213E-2 3.478441015E-2 4.068362340E-2
6.598037908E0 4.862487316E-2 2.757620253E-2 4.003785178E-2
6.602037908E0 4.410447180E-2 4.869468510E-3 4.785692692E-2
6.606037908E0 2.619739249E-2 6.300638430E-3 6.419321150E-2
6.610037908E0 3.473205259E-3 2.298598550E-2 8.262388408E-2
6.614050408E0 -1.179842558E-2 1.186823845E-2 9.690067917E-2
6.618037908E0 -1.891936921E-2 -3.049090132E-2 1.029046103E-1
6.622037908E0 -2.410299703E-2 -5.695009232E-2 1.000946313E-1
6.626037908E0 -3.192207217E-2 -5.660102889E-2 9.243264049E-2
6.630037908E0 -3.380702808E-2 -4.579744115E-2 8.140215278E-2
6.634037908E0 -3.099704720E-2 -4.508185387E-2 6.618288159E-2
6.638037908E0 -2.754129469E-2 -3.544763848E-2 5.136504024E-2
6.642037908E0 -2.919935808E-2 -4.188789986E-3 3.937462717E-2
6.646037908E0 -3.008947708E-2 3.274237737E-2 3.068288788E-2
6.650037908E0 -2.235766686E-2 4.946263134E-2 1.925098151E-2
6.654037908E0 -5.585053470E-3 4.612905160E-2 7.208209950E-3
6.658037908E0 1.834340952E-2 3.996803984E-2 1.518436475E-3
6.662037908E0 3.665191308E-2 4.963716492E-2 2.897246508E-3
6.666037908E0 4.848524556E-2 5.806710571E-2 9.738937020E-3
6.670037908E0 5.684537441E-2 4.267330095E-2 1.183333248E-2
6.674037908E0 6.384414434E-2 7.033676840E-3 9.808750823E-3
6.678037908E0 6.131341681E-2 -3.057816811E-2 7.173303049E-3
6.682037908E0 4.349360615E-2 -4.551818594E-2 3.769911127E-3
6.686037908E0 1.399754081E-2 -3.661700711E-2 9.791296907E-3
6.690037908E0 -1.640609466E-2 -2.385865152E-2 2.071705833E-2
6.694037908E0 -3.595378250E-2 -3.872885555E-2 3.214896470E-2
6.698037908E0 -4.825835302E-2 -6.794566661E-2 3.497639671E-2
6.702037908E0 -5.462880433E-2 -8.731882274E-2 3.059562109E-2
6.706037908E0 -5.703736097E-2 -8.770279586E-2 1.726130582E-2
6.710037908E0 -5.571090803E-2 -6.958627701E-2 3.089232836E-3
6.714037908E0 -4.529129341E-2 -4.572762549E-2 -6.318091881E-3
6.718037908E0 -3.157300502E-2 -2.385865152E-2 -8.918632753E-3
6.722037908E0 -1.535889693E-2 -3.246312495E-3 -7.190756500E-3
6.726037908E0 -5.759586347E-4 2.392846346E-2 -3.124139272E-3
6.730037908E0 1.017526910E-2 5.632177368E-2 -5.585053586E-4
6.734037908E0 2.727949619E-2 7.262314856E-2 2.513274085E-3
6.738037908E0 4.349360615E-2 7.202973962E-2 7.225662936E-3
6.742037908E0 5.464625731E-2 6.825982779E-2 8.604473434E-3
6.746037908E0 5.995205790E-2 6.126105785E-2 5.061454605E-3
6.750037908E0 6.255260110E-2 4.288274050E-2 5.235987919E-5
6.754037908E0 5.600761622E-2 9.634217247E-3 -6.038838997E-3
6.758037908E0 4.166100919E-2 -1.829105057E-2 -8.237954229E-3
6.762037908E0 1.773254573E-2 -3.433062509E-2 -8.377579972E-3
6.766037908E0 -8.953538723E-3 -3.609341010E-2 -6.894050632E-3
6.770037908E0 -3.549999744E-2 -3.337069601E-2 -3.036872949E-3
6.774037908E0 -5.251695588E-2 -4.438372329E-2 -2.792526735E-3
6.778037908E0 -5.890486389E-2 -6.354743987E-2 -5.724680144E-3
6.782037908E0 -5.831145123E-2 -7.141887397E-2 -9.215338156E-3
6.786037908E0 -5.290092900E-2 -6.052801758E-2 -8.918632753E-3
6.790037908E0 -4.063126445E-2 -4.260348529E-2 -4.921828397E-3
6.794044158E0 -2.284635976E-2 -2.905973233E-2 -1.029744279E-3
6.798037908E0 -3.595378250E-3 -1.949532703E-2 3.141592722E-3
6.802037908E0 1.045452245E-2 4.014257283E-4 4.834562074E-3
6.806037908E0 1.532399096E-2 3.602359444E-2 3.612831468E-3
6.810037908E0 1.537635084E-2 6.895796210E-2 2.094394993E-3
6.814037908E0 1.614429615E-2 9.410814941E-2 3.647738136E-3
6.818037908E0 2.040289901E-2 1.044405028E-1 6.771877408E-3
6.822037908E0 2.604031190E-2 1.039692611E-1 8.639379404E-3
6.826037908E0 3.141592816E-2 9.721484035E-2 6.562437862E-3
6.830037908E0 3.839724511E-2 7.531096041E-2 3.769911127E-3
6.834037908E0 4.593706504E-2 3.509857133E-2 -1.762782573E-3
6.838037908E0 4.611159861E-2 1.274090377E-3 -6.981316954E-3
6.842037908E0 3.635520861E-2 -2.844886668E-2 -9.389871731E-3
6.846037908E0 1.921607554E-2 -4.900884628E-2 -9.267698042E-3
6.850037908E0 -4.956734832E-3 -5.047492310E-2 -1.027998887E-2
6.854037908E0 -3.340560198E-2 -4.525638744E-2 -1.506219152E-2
6.858037908E0 -5.061454698E-2 -4.944517836E-2 -2.263692021E-2
6.862037908E0 -5.885250121E-2 -5.749114603E-2 -2.612757869E-2
6.866037908E0 -6.040584669E-2 -5.899212882E-2 -2.206096239E-2
6.870037908E0 -5.178391933E-2 -5.185373127E-2 -1.167625282E-2
6.874037908E0 -3.974114731E-2 -3.478441015E-2 -3.682644805E-3
6.878037908E0 -2.291617356E-2 -1.631882787E-2 3.490658492E-5
6.882037908E0 -1.343903481E-3 -3.385938704E-3 2.967059612E-3
6.886037908E0 1.284562331E-2 1.319468953E-2 7.644542027E-3
6.890037908E0 1.654572040E-2 4.867723212E-2 1.684242673E-2
6.894044158E0 1.569050923E-2 8.822639287E-2 2.330014482E-2
6.898037908E0 1.818633080E-2 1.116487086E-1 2.439970337E-2
6.902037908E0 2.501056902E-2 1.160992980E-1 2.090904489E-2
6.906037908E0 3.445279971E-2 1.033933014E-1 1.638864167E-2
6.910037908E0 4.115486518E-2 8.560840040E-2 1.385791413E-2
6.914037908E0 4.138175771E-2 7.466518879E-2 5.061454605E-3
6.918037908E0 3.797836602E-2 5.948081985E-2 -3.979350906E-3
6.922037908E0 3.408627957E-2 3.174753860E-2 -1.448623277E-2
6.926037908E0 2.975786291E-2 -1.010545623E-2 -2.293362655E-2
6.930037908E0 2.125811018E-2 -5.174901336E-2 -2.799508162E-2
6.934037908E0 7.906341925E-3 -8.639379591E-2 -2.932153083E-2
6.938037908E0 -1.061160211E-2 -1.037249193E-1 -2.153736353E-2
6.942037908E0 -3.696607426E-2 -9.409070015E-2 -1.392772701E-2
6.946037908E0 -5.906194076E-2 -7.949974388E-2 -9.546951391E-3
6.950037908E0 -7.084291428E-2 -7.283259183E-2 -1.275835652E-2
6.954037908E0 -7.257079333E-2 -6.855653226E-2 -1.963495463E-2
6.958037908E0 -6.457718462E-2 -5.270894244E-2 -1.932079531E-2
6.962037908E0 -5.436700583E-2 -1.666789502E-2 -1.155408006E-2
6.966037908E0 -3.710569814E-2 1.865756884E-2 2.268928074E-4
6.970037908E0 -1.363102160E-2 4.410447180E-2 1.610938832E-2
6.974037908E0 6.318091881E-3 7.661995292E-2 3.003711626E-2
6.978037908E0 2.160717547E-2 1.140049100E-1 3.459242731E-2
6.982039470E0 3.658210114E-2 1.424363256E-1 3.351031989E-2
6.986041033E0 5.387831479E-2 1.513724029E-1 2.839650773E-2
6.990037908E0 6.668902934E-2 1.472010612E-1 2.106612362E-2
6.994037908E0 7.333873212E-2 1.408480704E-1 6.946410518E-3
6.998037908E0 7.386233658E-2 1.261000335E-1 -1.462585945E-2
7.002037908E0 6.977826357E-2 8.737118542E-2 -3.064798191E-2
7.006041033E0 6.389650702E-2 2.216568217E-2 -4.026474431E-2
7.010037908E0 5.469861999E-2 -5.326744914E-2 -4.351105914E-2
7.014037908E0 2.806489356E-2 -9.435249865E-2 -3.502875939E-2
7.018037908E0 -8.656833321E-3 -1.077391729E-1 -2.151990868E-2
7.022037908E0 -4.700171575E-2 -1.127308160E-1 -1.317723561E-2
7.026037908E0 -8.094836771E-2 -1.202008277E-1 -9.337511845E-3
7.030037908E0 -1.019970402E-1 -1.252971888E-1 -1.375319436E-2
7.034037908E0 -1.079486161E-1 -1.252971888E-1 -1.837831736E-2
7.038037908E0 -1.054178849E-1 -1.045277715E-1 -1.689478755E-2
7.042037908E0 -9.693558514E-2 -6.359979510E-2 -8.970992640E-3
7.046037908E0 -8.133234084E-2 -1.480039209E-2 9.180432186E-3
7.050037908E0 -5.543165654E-2 2.754129469E-2 2.432988957E-2
7.054037908E0 -1.946042106E-2 6.524040550E-2 3.113667294E-2
7.058037908E0 1.698205434E-2 1.059065759E-1 3.005456924E-2
7.062037908E0 4.743804783E-2 1.603259444E-1 2.223549411E-2
7.066037908E0 7.417649031E-2 2.029992491E-1 4.852015525E-3
7.070037908E0 1.040216237E-1 2.118829638E-1 -1.157153305E-2
7.074037908E0 1.279326379E-1 1.887573600E-1 -2.895501256E-2
7.078037908E0 1.382475346E-1 1.506393701E-1 -4.358087108E-2
7.082037908E0 1.361007690E-1 1.012814566E-1 -5.204571784E-2
7.086037908E0 1.195899621E-1 2.818706818E-2 -5.457644537E-2
7.090037908E0 8.789478242E-2 -3.426081315E-2 -4.513421282E-2
7.094037908E0 3.583160788E-2 -6.635741889E-2 -2.897246554E-2
7.098037908E0 -1.930334233E-2 -7.724827528E-2 -9.861109778E-3
7.102037908E0 -7.295475900E-2 -8.970992267E-2 1.151917269E-3
7.106037908E0 -1.185951233E-1 -1.116312593E-1 2.809980186E-3
7.110037908E0 -1.420872509E-1 -1.378111988E-1 -1.396263367E-3
7.114050408E0 -1.483529806E-1 -1.586678773E-1 -7.784168236E-3
7.118037908E0 -1.406386346E-1 -1.535889804E-1 -1.186823938E-3
7.122037908E0 -1.265887320E-1 -1.108633131E-1 9.564404376E-3
7.126037908E0 -1.062207371E-1 -4.913101718E-2 1.600466855E-2
7.130037908E0 -7.276277989E-2 6.126105785E-3 1.179842558E-2
7.134037908E0 -2.038544603E-2 4.249876738E-2 -2.617993741E-4
7.138037908E0 3.136356547E-2 7.559020817E-2 -1.305506285E-2
7.142037908E0 7.630579174E-2 1.175130159E-1 -2.738421597E-2
7.146037908E0 1.196423173E-1 1.427679360E-1 -3.864159063E-2
7.150037908E0 1.574461460E-1 1.304109991E-1 -4.684463516E-2
7.154037908E0 1.823694557E-1 8.229227364E-2 -5.305800959E-2
7.158037908E0 1.798561811E-1 4.335397854E-2 -5.152212083E-2
7.162037908E0 1.421570629E-1 3.485422581E-2 -3.757693991E-2
7.166037908E0 8.325220644E-2 4.921828583E-2 -1.736602560E-2
7.170037908E0 1.427679323E-2 6.864380091E-2 -5.759586580E-3
7.174037908E0 -4.618141055E-2 4.111995548E-2 -2.443460980E-3
7.178037908E0 -8.253662288E-2 -3.127630055E-2 -5.934119225E-3
7.182037908E0 -1.150521040E-1 -7.915068418E-2 -1.605702913E-3
7.186037908E0 -1.424886733E-1 -7.147122920E-2 1.021017600E-2
7.190037908E0 -1.565909386E-1 -3.447025269E-2 1.947787404E-2
7.194044158E0 -1.405513585E-1 -1.998401992E-2 1.872738265E-2
7.198037908E0 -1.040041670E-1 -2.705260366E-2 9.197885171E-3
7.202037908E0 -5.773549154E-2 -2.038544603E-2 -3.961897455E-3
7.206037908E0 -1.403244678E-2 2.124065720E-2 -1.958259381E-2
7.210037908E0 2.473131567E-2 6.827727705E-2 -3.209660575E-2
7.214037908E0 7.757988572E-2 7.937757671E-2 -4.333652556E-2
7.218037908E0 1.278104633E-1 5.485569686E-2 -5.920156837E-2
7.222037908E0 1.580919176E-1 2.432988957E-2 -7.524114102E-2
7.226037908E0 1.601165086E-1 1.108284108E-2 -8.363617957E-2
7.230037908E0 1.336922199E-1 1.621410809E-2 -7.801621407E-2
7.234037908E0 9.171704948E-2 2.045525797E-2 -6.433283538E-2
7.238037908E0 4.253367335E-2 8.307767101E-3 -4.722860828E-2
7.242037908E0 -1.708677411E-2 5.567600485E-3 -2.635447122E-2
7.246037908E0 -7.241371274E-2 1.000073645E-2 -1.111774705E-2
7.250037908E0 -1.022064835E-1 -1.633628085E-2 -2.268928074E-4
7.254037908E0 -1.114567220E-1 -6.377433240E-2 1.207767799E-2
7.258037908E0 -1.146157682E-1 -7.482226193E-2 1.951278187E-2
7.262037908E0 -1.116836220E-1 -5.073672161E-2 2.310816012E-2
7.266037908E0 -9.466665983E-2 -1.912880875E-2 1.862266287E-2
7.270037908E0 -6.674139202E-2 -1.239183708E-3 6.911503617E-3
7.274037908E0 -2.452187613E-2 8.953538723E-3 -5.305801053E-3
7.278037908E0 1.642354764E-2 2.350958437E-2 -1.347394194E-2
7.282037908E0 5.782275647E-2 3.469714522E-2 -2.281145379E-2
7.286037908E0 9.328784794E-2 3.235840425E-2 -3.834488243E-2
7.290037908E0 1.194154248E-1 1.713913307E-2 -5.745624006E-2
7.294044158E0 1.321039647E-1 -1.240929123E-2 -7.374016196E-2
7.298037908E0 1.268330812E-1 -4.227187485E-2 -8.520697057E-2
7.302037908E0 9.070476145E-2 -4.242895544E-2 -8.143706620E-2
7.306037908E0 4.150392860E-2 -2.342231758E-2 -6.222098693E-2
7.310037908E0 -7.138396613E-3 -2.778564207E-2 -4.050909355E-2
7.314037908E0 -5.052728206E-2 -5.002113804E-2 -1.661553420E-2
7.318037908E0 -8.278096467E-2 -6.953391433E-2 -5.934119690E-4
7.322037908E0 -1.039867178E-1 -8.424704522E-2 8.674286306E-3
7.326037908E0 -1.083151326E-1 -9.201376140E-2 8.237954229E-3
7.330037908E0 -1.017526984E-1 -8.276351541E-2 2.391101094E-3
7.334037908E0 -8.574802428E-2 -5.564109609E-2 -1.675516134E-3
7.338037908E0 -6.110397726E-2 -3.108431399E-2 -2.583087189E-3
7.342037908E0 -3.042108938E-2 -6.649704650E-3 -1.919862116E-3
7.346037908E0 -1.797689125E-3 2.169444226E-2 -4.293509759E-3
7.350037908E0 3.031636961E-2 5.363396928E-2 -7.784168236E-3
7.354037908E0 5.586798862E-2 7.340855151E-2 -1.516691130E-2
7.358037908E0 8.375835419E-2 6.729989499E-2 -2.642428502E-2
7.362037908E0 1.035329327E-1 3.497639671E-2 -3.974114731E-2
7.366037908E0 1.086991057E-1 1.115265395E-2 -5.150466785E-2
7.370037908E0 9.318313003E-2 1.441641990E-2 -5.907939374E-2
7.374037908E0 5.993460491E-2 2.780309506E-2 -5.806710571E-2
7.378037908E0 2.940879762E-2 1.176351868E-2 -4.740314186E-2
7.382037908E0 1.151917269E-3 -3.291691095E-2 -3.663446009E-2
7.386037908E0 -3.209660575E-2 -5.743878707E-2 -2.825688012E-2
7.390037908E0 -6.291911751E-2 -5.311036855E-2 -2.350958437E-2
7.394037908E0 -7.983136177E-2 -5.028293654E-2 -1.836086437E-2
7.398037908E0 -8.094836771E-2 -6.506587565E-2 -1.626646891E-2
7.402037908E0 -6.977826357E-2 -8.700466156E-2 -1.347394194E-2
7.406037908E0 -5.571090803E-2 -8.161159605E-2 -7.470009383E-3
7.410037908E0 -4.017747939E-2 -5.007349700E-2 -1.692969352E-3
7.414037908E0 -2.211332135E-2 -2.391101047E-2 2.513274085E-3
7.418037908E0 -4.450589418E-3 -4.764748737E-3 4.817108624E-3
7.422037908E0 1.052433532E-2 1.720894687E-2 6.475171540E-3
7.426037908E0 2.422516979E-2 4.192280769E-2 3.298672382E-3
7.430037908E0 3.530801088E-2 6.478662044E-2 -1.431170036E-3
7.434037908E0 4.874704406E-2 6.836454570E-2 -6.143558770E-3
7.438037908E0 6.262241304E-2 4.804891348E-2 -8.569566533E-3
7.442037908E0 6.731735170E-2 2.151990868E-2 -1.101302728E-2
7.446037908E0 5.935864896E-2 3.735004691E-3 -1.089085452E-2
7.450037908E0 4.117231816E-2 -2.827433404E-3 -9.215338156E-3
7.454037908E0 1.790707745E-2 -1.446877979E-2 -2.303834539E-3
7.458037908E0 -7.103490178E-3 -3.075270168E-2 6.719517522E-3
7.462037908E0 -2.930407785E-2 -4.628613219E-2 1.284562331E-2
7.466037908E0 -4.803146049E-2 -5.201081187E-2 1.322959550E-2
7.470037908E0 -5.984733999E-2 -4.956734926E-2 7.923794910E-3
7.474037908E0 -5.721189082E-2 -5.569345504E-2 2.303834539E-3
7.478037908E0 -4.913101718E-2 -6.167993695E-2 -7.853981806E-4
7.482037908E0 -3.874630854E-2 -5.377359316E-2 -2.199114766E-3
7.486037908E0 -2.761110850E-2 -2.806489356E-2 -1.745329246E-5
7.490037908E0 -1.521927118E-2 -5.759586347E-4 1.745329238E-3
7.494037908E0 1.832595677E-3 1.696459949E-2 4.014257283E-4
7.498037908E0 2.164208330E-2 2.305579931E-2 9.424777818E-4
7.502037908E0 3.539527580E-2 2.974040993E-2 3.054326167E-3
7.506037908E0 4.230678082E-2 4.188790172E-2 5.864306353E-3
7.510037908E0 4.574507847E-2 3.844960406E-2 1.080358773E-2
7.514037908E0 5.131268129E-2 1.089085452E-2 2.141519077E-2
7.518037908E0 4.632103816E-2 -1.120501384E-2 3.682644665E-2
7.522037908E0 2.617993951E-2 -1.155408006E-2 5.335471407E-2
7.526037908E0 4.223696887E-3 -3.193952609E-3 6.518805027E-2
7.530037908E0 -1.836086437E-2 -3.560471581E-3 7.293730974E-2
7.534037908E0 -3.284709528E-2 -2.757620253E-2 7.887142897E-2
7.538037908E0 -3.766420484E-2 -5.375614017E-2 8.583529294E-2
7.542037908E0 -4.192280769E-2 -5.953317881E-2 9.803514183E-2
7.546037908E0 -4.544837400E-2 -4.283038154E-2 1.105666086E-1
7.550037908E0 -4.187044874E-2 -2.563888580E-2 1.166927144E-1
7.554037908E0 -3.127630055E-2 -1.724385284E-2 1.160294861E-1
7.558037908E0 -1.724385284E-2 -1.130973361E-2 1.098335683E-1
7.562037908E0 -4.223696887E-3 2.844886621E-3 1.032362282E-1
7.566037908E0 3.054326167E-3 3.590142354E-2 9.686577320E-2
7.570037908E0 1.052433532E-2 6.592108309E-2 8.405505866E-2
7.574037908E0 2.014109865E-2 8.052948862E-2 7.288494706E-2
7.578037908E0 2.851868048E-2 7.983136177E-2 6.335545331E-2
7.582037908E0 3.869394958E-2 7.089527696E-2 5.815437064E-2
7.586037908E0 4.345869645E-2 5.682792142E-2 5.906194076E-2
7.590037908E0 4.515166581E-2 2.563888580E-2 6.862634420E-2
7.594044158E0 4.183554277E-2 -1.202531811E-2 8.587019891E-2
7.598037908E0 2.862340026E-2 -3.584906086E-2 1.031664088E-1
7.602037908E0 5.916666240E-3 -4.583234712E-2 1.176177412E-1
7.606037908E0 -2.469640970E-2 -4.419173673E-2 1.313185692E-1
7.610037908E0 -4.729842395E-2 -5.113814771E-2 1.422617882E-1
7.614050408E0 -5.888740718E-2 -7.265805453E-2 1.547583491E-1
7.618037908E0 -6.297148019E-2 -8.703956753E-2 1.688431501E-1
7.622037908E0 -6.553710997E-2 -8.192575723E-2 1.887748092E-1
7.626037908E0 -6.349507719E-2 -5.902703479E-2 2.123367488E-1
7.630037908E0 -5.124286562E-2 -4.115486518E-2 2.344500721E-1
7.634037908E0 -2.981022373E-2 -3.242821619E-2 2.572091818E-1
7.638037908E0 -1.008800324E-2 -2.054252476E-2 2.800206244E-1
7.642037908E0 9.354964830E-3 6.108652451E-4 3.001093566E-1
7.646037908E0 2.181661502E-2 2.525491454E-2 3.192032576E-1
7.650037908E0 2.942625061E-2 4.687954485E-2 3.341083825E-1
7.654037908E0 3.289945796E-2 5.585053563E-2 3.507937193E-1
7.658037908E0 3.305653483E-2 5.576327071E-2 3.685262799E-1
7.662037908E0 2.979277074E-2 5.302310362E-2 3.859620988E-1
7.666037908E0 2.096140385E-2 4.975933582E-2 4.026998281E-1
7.670037908E0 1.158898603E-2 3.672172874E-2 4.181983471E-1
7.674037908E0 2.216568217E-3 1.450368576E-2 4.356341660E-1
7.678037908E0 -8.203047328E-3 -4.991641734E-3 4.543266594E-1
7.682037908E0 -1.994911395E-2 -2.090904489E-2 4.727573395E-1
7.686037908E0 -2.857103944E-2 -3.017674200E-2 4.920083284E-1
7.690037908E0 -3.684389964E-2 -3.530801088E-2 5.108753443E-1
7.694044158E0 -4.066617042E-2 -3.738495335E-2 5.277003050E-1
7.698037908E0 -4.150392860E-2 -3.869394958E-2 5.438097119E-1
7.702037908E0 -3.782128543E-2 -3.872885555E-2 5.600587130E-1
7.706037908E0 -3.157300502E-2 -3.618067503E-2 5.780006647E-1
7.710037908E0 -2.467895485E-2 -2.769837528E-2 5.969724059E-1
7.714037908E0 -1.656317525E-2 -1.328195538E-2 6.151587367E-1
7.718037908E0 -8.429939859E-3 1.762782573E-3 6.307619810E-1
7.722037908E0 -1.186823938E-3 1.441641990E-2 6.469935775E-1
7.726037908E0 5.794493016E-3 2.118829638E-2 6.617764831E-1
7.730037908E0 1.139700040E-2 2.354449220E-2 6.791774035E-1
7.734037908E0 1.134464052E-2 2.745402977E-2 6.932098866E-1
7.738037908E0 1.057669520E-2 2.984512970E-2 7.058809400E-1
7.742037908E0 8.726646192E-3 2.235766686E-2 7.168765068E-1
7.746037908E0 5.829399452E-3 6.841690745E-3 7.194421887E-1
7.750037908E0 2.373647876E-3 -1.946042106E-2 7.187615037E-1
7.754037908E0 -4.537856206E-3 -2.892010473E-2 7.202275395E-1
7.758037908E0 -1.717403904E-2 -1.647590846E-2 7.281339169E-1
7.762037908E0 -2.590068616E-2 -4.607669078E-3 7.312580347E-1
7.766037908E0 -2.591813914E-2 -1.265363675E-2 7.286051512E-1
7.770037908E0 -1.780235767E-2 -4.921828583E-2 7.130368352E-1
7.774037908E0 -6.946410518E-3 -9.026842564E-2 6.853209734E-1
7.778037908E0 -4.852015525E-3 -8.520697057E-2 6.652845740E-1
7.782037908E0 -8.691739291E-3 -4.951499030E-2 6.489483118E-1
7.786037908E0 -5.323254038E-3 -2.239257470E-2 6.311284900E-1
7.790037908E0 9.232792072E-3 -1.745329238E-2 6.130818129E-1
7.794037908E0 2.192133479E-2 -1.363102160E-2 5.925741792E-1
7.798037908E0 2.780309506E-2 -8.901178953E-4 5.685584545E-1
7.802037908E0 3.113667294E-2 1.356120780E-2 5.454328656E-1
7.806037908E0 3.035127558E-2 2.398082428E-2 5.218011141E-1
7.810037908E0 2.923426405E-2 2.066469751E-2 4.992339909E-1
7.814037908E0 2.939134464E-2 8.953538723E-3 4.758814573E-1
7.818037908E0 2.417281084E-2 4.537856206E-3 4.536808729E-1
7.822037908E0 1.619665511E-2 5.794493016E-3 4.299967587E-1
7.826037908E0 6.422811653E-3 1.466076588E-3 4.045324028E-1
7.830037908E0 -1.745329246E-5 -9.878563695E-3 3.796963692E-1
7.834037908E0 -5.166174378E-3 -2.309070528E-2 3.543891013E-1
7.838037908E0 -1.282817032E-2 -2.954842336E-2 3.322932422E-1
7.842037908E0 -1.438151300E-2 -3.361504152E-2 3.095341325E-1
7.846037908E0 -1.628392190E-2 -3.590142354E-2 2.868797779E-1
7.850037908E0 -1.783726551E-2 -2.867575921E-2 2.686236203E-1
7.854037908E0 -1.555088349E-2 -2.555162087E-2 2.546784580E-1
7.858037908E0 -9.965829551E-3 -3.363249451E-2 2.487792373E-1
7.862037908E0 -6.702064537E-3 -3.562216833E-2 2.477145791E-1
7.866037908E0 -9.005898610E-3 -2.303834632E-2 2.501231432E-1
7.870037908E0 -1.068141498E-2 -5.585053470E-3 2.530203760E-1
7.874037908E0 -1.096066739E-2 5.113814492E-3 2.561968863E-1
7.878037908E0 -8.011061698E-3 1.122246683E-2 2.585181594E-1
7.882037908E0 -8.447393775E-3 1.837831736E-2 2.598795295E-1
7.886037908E0 -1.624901593E-2 4.415683076E-2 2.587276101E-1
7.890037908E0 -1.888446324E-2 7.154104859E-2 2.557256520E-1
7.894037908E0 -1.417207345E-2 6.712536514E-2 2.505769134E-1
7.898037908E0 -5.759586347E-4 3.733259439E-2 2.405063659E-1
7.902037908E0 8.831365965E-3 1.492256485E-2 2.228261828E-1
7.906037908E0 1.308996975E-2 1.031489577E-2 2.087064683E-1
7.910037908E0 1.780235767E-2 -2.879793290E-3 1.988802701E-1
7.914037908E0 2.145009674E-2 -3.675663471E-2 1.934348345E-1
7.918037908E0 1.684242673E-2 -6.607816368E-2 1.968382299E-1
7.922037908E0 -4.363323096E-3 -4.895648360E-2 2.126160115E-1
7.926037908E0 -4.059635848E-2 1.755801216E-2 2.339090258E-1
7.930037908E0 -7.028441131E-2 6.436774135E-2 2.590417564E-1
7.934037908E0 -7.093018293E-2 3.562216833E-2 2.798984647E-1
7.938037908E0 -5.738642439E-2 -2.761110850E-2 2.966187000E-1
7.942037908E0 -4.719370231E-2 -6.073745713E-2 3.070034087E-1
7.946037908E0 -5.071926862E-2 -3.595378250E-2 3.116634488E-1
7.950037908E0 -5.693263933E-2 1.300270297E-2 3.121172190E-1
7.954037908E0 -5.464625731E-2 3.680899367E-2 3.125361204E-1
7.958037908E0 -4.380776361E-2 3.349286690E-2 3.132517040E-1
7.962037908E0 -3.239331022E-2 3.125884756E-2 3.027622700E-1
7.966037908E0 -2.293362655E-2 3.895574808E-2 2.786592543E-1
7.970037908E0 -1.099557430E-2 4.159119725E-2 2.394068092E-1
7.974037908E0 5.654866807E-3 2.766346931E-2 1.873261929E-1
7.978037908E0 2.174680308E-2 1.452113967E-2 1.353502870E-1
7.982037908E0 3.075270168E-2 1.846558414E-2 9.032078832E-2
7.986037908E0 3.597123548E-2 2.150245570E-2 5.691518635E-2
7.990037908E0 3.733259439E-2 4.537856148E-4 2.680825815E-2
7.994044158E0 2.820452116E-2 -9.581857361E-3 1.008800324E-2
7.998037908E0 8.203047328E-3 7.365289610E-3 6.632251199E-3
8.002037908E0 -1.129228063E-2 1.905899495E-2 9.948376566E-3
8.006037908E0 -2.408554405E-2 9.302604944E-3 1.518436428E-2
8.010037908E0 -2.528982051E-2 -6.038838997E-3 2.076941729E-2
8.014037908E0 -2.621484548E-2 -1.937315427E-2 2.042035200E-2
8.018037908E0 -2.282890677E-2 -1.956514083E-2 1.731366664E-2
8.022037908E0 -1.954768784E-2 -6.492624991E-3 1.244419720E-2
8.026037908E0 -1.326450240E-2 6.998770405E-3 6.195918657E-3
8.030037908E0 -4.258603323E-3 7.365289610E-3 4.572762642E-3
8.034037908E0 5.148721393E-3 3.665191354E-3 5.044001620E-3
8.038037908E0 1.137954649E-2 1.172861271E-2 6.981316954E-3
8.042037908E0 8.936085738E-3 3.551745042E-2 4.939281847E-3
8.046037908E0 4.677482415E-3 5.393067375E-2 4.084070213E-3
8.050037908E0 7.470009383E-3 5.602506921E-2 4.921828397E-3
8.054037908E0 1.003564335E-2 4.468042776E-2 3.490658477E-3
8.058037908E0 1.563815027E-2 3.132865950E-2 2.216568217E-3
8.062037908E0 1.864011586E-2 2.181661502E-2 6.806784077E-4
8.066037908E0 1.743583940E-2 1.663298719E-2 -1.064650831E-3
8.070037908E0 1.577777602E-2 1.745329238E-3 -1.675516134E-3
8.074037908E0 1.354375482E-2 -1.900663599E-2 -9.250245057E-4
8.078037908E0 3.630284918E-3 -2.427753061E-2 2.862340072E-3
