"Time (s)","Gyroscope x (rad/s)","Gyroscope y (rad/s)","Gyroscope z (rad/s)"
1.418650620E-1,-3.211405827E-3,-1.178097259E-2,1.972222002E-3
1.448510000E-1,-1.298524998E-2,1.141445339E-2,1.972222002E-3
1.488510000E-1,1.143190637E-2,1.640609466E-3,-1.675516134E-3
1.528510000E-1,1.021017600E-2,-1.422443334E-2,7.679448463E-4
1.568510000E-1,-1.176351868E-2,7.749261800E-3,-4.363323096E-4
1.608510000E-1,8.988445625E-3,2.862340072E-3,-2.879793290E-3
1.648510000E-1,4.363323096E-4,1.263618376E-2,-2.879793290E-3
1.688510000E-1,6.544984877E-3,-3.228859045E-3,7.679448463E-4
1.728510000E-1,1.658062800E-3,-7.679448463E-4,1.972222002E-3
1.768525620E-1,4.363323096E-4,-7.679448463E-4,7.504915702E-4
1.808510000E-1,2.879793290E-3,1.658062800E-3,-4.537856148E-4
1.848510000E-1,1.745329238E-3,5.410520826E-4,5.585053586E-4
1.888510000E-1,2.199114766E-3,6.457717973E-4,4.886921961E-4
1.928510000E-1,1.884955564E-3,5.235987483E-4,6.108652451E-4
1.968510000E-1,1.343903481E-3,3.490658419E-4,4.886921961E-4
2.008510000E-1,1.658062800E-3,5.934119690E-4,6.108652451E-4
2.048510000E-1,1.134464052E-3,9.773843922E-4,1.919862116E-4
2.088510000E-1,2.495820867E-3,4.537856148E-4,3.839724232E-4
2.128510000E-1,2.548180753E-3,3.316125658E-4,0.000000000E0
2.168510000E-1,1.832595677E-3,2.967059845E-4,1.745329209E-4
2.208510000E-1,4.031710327E-3,2.094394993E-3,-2.094395168E-4
2.248510000E-1,1.151917269E-3,3.612831468E-3,1.221730490E-4
2.288510000E-1,1.308996929E-3,8.552113432E-4,2.094395168E-4
2.328541250E-1,2.094394993E-3,5.759586347E-4,-1.919862116E-4
2.368510000E-1,1.850049011E-3,1.256637042E-3,1.221730490E-4
2.408510000E-1,2.548180753E-3,1.448623254E-3,2.094395168E-4
2.448510000E-1,3.612831468E-3,7.330382941E-4,-3.490658492E-5
2.488510000E-1,4.817108624E-3,3.124139272E-3,-4.188790335E-4
2.528510000E-1,3.455751808E-3,2.373647876E-3,3.665191471E-4
2.568510000E-1,8.726646047E-5,3.839724232E-3,1.396263397E-4
2.608510000E-1,2.234021435E-3,1.815142459E-3,-2.094395168E-4
2.648510000E-1,2.495820867E-3,1.727875904E-3,-1.745329246E-5
2.688510000E-1,2.548180753E-3,1.117010717E-3,-2.617993741E-4
2.728510000E-1,2.129301662E-3,6.457717973E-4,1.047197584E-4
2.768510000E-1,1.256637042E-3,3.839724232E-4,-2.268928074E-4
2.808510000E-1,8.395033889E-3,-4.939281847E-3,4.188790335E-4
2.848510000E-1,1.710422686E-3,2.443460980E-4,8.901178953E-4
2.888510000E-1,-3.211405827E-3,5.131267942E-3,4.188790335E-4
2.928510000E-1,1.745329246E-5,1.535889693E-3,2.967059845E-4
2.968510000E-1,1.919862116E-3,9.075712296E-4,-1.745329209E-4
3.008510000E-1,2.111848444E-3,5.934119690E-4,1.396263397E-4
3.048510000E-1,2.460914198E-3,1.274090377E-3,2.094395168E-4
3.088510000E-1,2.251474652E-3,1.745329238E-3,-1.919862116E-4
3.128510000E-1,2.792526735E-3,3.665191471E-4,1.221730490E-4
3.168510000E-1,1.431170036E-3,7.504915702E-4,6.632251316E-4
3.208510000E-1,1.972222002E-3,4.014257283E-4,-3.839724232E-4
3.248510000E-1,2.268928103E-3,3.141592606E-4,-2.094395168E-4
3.288510000E-1,1.745329238E-3,1.204277156E-3,7.330382941E-4
3.328510000E-1,2.513274085E-3,1.431170036E-3,3.665191471E-4
3.368510000E-1,1.658062800E-3,8.726646192E-4,2.792526793E-4
3.408510000E-1,1.291543595E-3,5.934119690E-4,2.617993741E-4
3.448510000E-1,1.343903481E-3,3.665191471E-4,6.981316837E-4
3.488510000E-1,7.504915702E-4,7.504915702E-4,3.665191471E-4
3.528510000E-1,1.797689125E-3,-3.490658492E-5,2.792526793E-4
3.568510000E-1,1.012290944E-3,9.424777818E-4,2.617993741E-4
3.608510000E-1,2.478367416E-3,6.108652451E-4,2.443460980E-4
3.648510000E-1,2.408554312E-3,6.632251316E-4,-1.919862116E-4
3.688510000E-1,1.937315450E-3,5.410520826E-4,1.221730490E-4
3.728510000E-1,1.204277156E-3,3.490658419E-4,2.094395168E-4
3.768510000E-1,1.169370604E-3,1.047197497E-3,2.443460980E-4
3.808510000E-1,1.308996929E-3,1.535889693E-3,2.443460980E-4
3.848510000E-1,7.504915702E-4,2.111848444E-3,2.443460980E-4
3.888510000E-1,1.186823938E-3,1.064650831E-3,2.443460980E-4
3.928510000E-1,1.919862116E-3,4.886921961E-4,2.443460980E-4
3.968510000E-1,9.075712296E-4,3.316125658E-4,6.981316837E-4
4.008510000E-1,1.832595677E-3,2.967059845E-4,6.632251316E-4
4.048510000E-1,2.391101094E-3,2.792526793E-4,5.061454722E-4
4.088510000E-1,2.373647876E-3,1.780235791E-3,3.141592606E-4
4.128510000E-1,1.919862116E-3,1.884955564E-3,2.617993741E-4
4.168510000E-1,2.705260413E-3,4.014257283E-4,6.981316837E-4
4.208510000E-1,2.775073517E-3,4.537856148E-4,3.665191471E-4
4.248510000E-1,6.806784077E-4,2.129301662E-3,2.792526793E-4
4.288510000E-1,2.670353744E-3,4.712388909E-4,2.617993741E-4
4.328510000E-1,2.007128671E-3,3.316125658E-4,6.981316837E-4
4.368510000E-1,2.286381321E-3,-1.396263397E-4,6.632251316E-4
4.408510000E-1,3.543018363E-3,9.250245057E-4,5.235987919E-5
4.448510000E-1,1.623156248E-3,6.108652451E-4,1.919862116E-4
4.488510000E-1,1.274090377E-3,3.665191471E-4,2.268928074E-4
4.528510000E-1,1.326450263E-3,9.075712296E-4,2.443460980E-4
4.568510000E-1,1.954768784E-3,1.500983140E-3,2.443460980E-4
4.608510000E-1,1.658062800E-3,1.047197497E-3,6.981316837E-4
4.648510000E-1,1.291543595E-3,2.146754880E-3,3.665191471E-4
4.688510000E-1,1.343903481E-3,1.815142459E-3,2.792526793E-4
4.728510000E-1,7.504915702E-4,8.377580671E-4,-4.712388909E-4
4.768510000E-1,4.537856148E-4,7.330382941E-4,-8.726646047E-5
4.808510000E-1,3.665191471E-4,1.448623254E-3,-2.792526793E-4
4.848510000E-1,1.396263367E-3,1.186823938E-3,-3.316125658E-4
4.888510000E-1,2.268928103E-3,8.203047328E-4,8.726646047E-5
4.928510000E-1,1.291543595E-3,1.029744279E-3,2.094395168E-4
4.968510000E-1,1.483529806E-3,3.176499158E-3,-5.235987919E-5
5.008510000E-1,1.850049011E-3,2.251474652E-3,-4.188790335E-4
5.048510000E-1,3.735004691E-3,1.692969352E-3,-6.632251316E-4
5.088510000E-1,5.148721393E-3,1.099557383E-3,-1.221730490E-4
5.128510000E-1,2.199114766E-3,4.118977115E-3,1.396263397E-4
5.168510000E-1,1.134464052E-3,1.727875904E-3,8.203047328E-4
5.208510000E-1,1.745329238E-3,2.164208330E-3,6.981316837E-4
5.248510000E-1,1.605702913E-3,2.426007763E-3,3.665191471E-4
5.288510000E-1,8.203047328E-4,1.588249579E-3,2.792526793E-4
5.328510000E-1,1.675516134E-3,1.378810150E-3,2.617993741E-4
5.368510000E-1,1.588249579E-3,1.326450263E-3,2.443460980E-4
5.408510000E-1,2.164208330E-3,1.151917269E-3,2.443460980E-4
5.448510000E-1,1.413716702E-3,2.164208330E-3,2.443460980E-4
5.488510000E-1,9.250245057E-4,3.141592606E-4,6.981316837E-4
5.528510000E-1,2.146754880E-3,5.934119690E-4,3.665191471E-4
5.568510000E-1,1.256637042E-3,5.235987483E-4,7.330382941E-4
5.608510000E-1,1.186823938E-3,1.553343027E-3,6.806784077E-4
5.648510000E-1,1.308996929E-3,1.815142459E-3,5.061454722E-4
5.688510000E-1,1.500983140E-3,1.745329238E-3,3.141592606E-4
5.728510000E-1,1.535889693E-3,1.570796361E-3,1.466076588E-3
5.768510000E-1,1.710422686E-3,1.221730490E-3,1.012290944E-3
5.808510000E-1,1.291543595E-3,2.024581889E-3,5.934119690E-4
5.848510000E-1,2.251474652E-3,1.797689125E-3,-8.552113432E-4
5.888510000E-1,1.291543595E-3,1.884955564E-3,-1.745329209E-4
5.928510000E-1,2.094394993E-3,1.902408898E-3,1.396263397E-4
5.968510000E-1,1.553343027E-3,1.902408898E-3,2.094395168E-4
6.008510000E-1,9.599310579E-4,1.902408898E-3,2.443460980E-4
6.048510000E-1,1.396263367E-3,1.605702913E-3,-3.490658492E-5
6.088510000E-1,1.972222002E-3,1.535889693E-3,1.745329246E-5
6.128510000E-1,1.675516134E-3,1.658062800E-3,1.919862116E-4
6.168525620E-1,1.745329238E-3,2.146754880E-3,5.235987483E-4
6.208541250E-1,2.199114766E-3,2.129301662E-3,4.712388909E-4
6.248510000E-1,2.478367416E-3,2.268928103E-3,6.108652451E-4
6.288510000E-1,8.901178953E-4,1.099557383E-3,4.886921961E-4
6.328572500E-1,7.853981806E-4,1.256637042E-3,3.141592606E-4
6.368510000E-1,9.075712296E-4,2.792526735E-3,2.617993741E-4
6.408510000E-1,1.239183708E-3,1.082104165E-3,2.443460980E-4
6.448541250E-1,1.623156248E-3,4.886921961E-4,1.291543595E-3
6.488510000E-1,2.024581889E-3,6.457717973E-4,8.203047328E-4
6.528510000E-1,1.535889693E-3,5.235987483E-4,6.981316837E-4
6.568510000E-1,2.757620299E-3,3.490658419E-4,9.773843922E-4
6.608510000E-1,1.884955564E-3,5.934119690E-4,4.363323096E-4
6.648510000E-1,1.937315450E-3,1.274090377E-3,2.967059845E-4
6.688510000E-1,1.954768784E-3,1.448623254E-3,7.155850180E-4
6.728510000E-1,1.518436475E-3,1.186823938E-3,6.632251316E-4
6.768510000E-1,9.424777818E-4,5.235987483E-4,5.235987919E-5
6.808510000E-1,9.424777818E-4,3.490658419E-4,6.457717973E-4
6.848510000E-1,9.424777818E-4,7.504915702E-4,3.490658419E-4
6.888510000E-1,3.054326167E-3,4.014257283E-4,2.792526793E-4
6.928510000E-1,1.343903481E-3,1.064650831E-3,2.617993741E-4
6.968510000E-1,1.361356815E-3,1.099557383E-3,2.443460980E-4
7.008510000E-1,2.111848444E-3,1.553343027E-3,2.443460980E-4
7.048510000E-1,2.007128671E-3,9.250245057E-4,2.443460980E-4
7.088510000E-1,2.129301662E-3,1.343903481E-3,2.443460980E-4
7.128510000E-1,9.599310579E-4,1.012290944E-3,2.443460980E-4
7.168510000E-1,1.256637042E-3,9.250245057E-4,2.443460980E-4
7.208510000E-1,1.483529806E-3,4.537856148E-4,2.443460980E-4
7.248510000E-1,1.535889693E-3,7.853981806E-4,2.443460980E-4
7.288510000E-1,1.710422686E-3,1.169370604E-3,2.443460980E-4
7.328510000E-1,2.199114766E-3,9.599310579E-4,2.443460980E-4
7.368510000E-1,9.773843922E-4,1.815142459E-3,2.443460980E-4
7.408510000E-1,1.710422686E-3,1.291543595E-3,6.981316837E-4
7.448510000E-1,1.745329238E-3,1.448623254E-3,3.665191471E-4
7.488510000E-1,1.012290944E-3,1.047197497E-3,2.792526793E-4
7.528510000E-1,1.727875904E-3,3.316125658E-4,2.617993741E-4
7.568510000E-1,2.059488557E-3,1.500983140E-3,5.410520826E-4
7.608510000E-1,2.583087189E-3,1.500983140E-3,9.250245057E-4
7.648510000E-1,2.583087189E-3,9.075712296E-4,4.188790335E-4
7.688510000E-1,1.535889693E-3,5.934119690E-4,5.934119690E-4
7.728510000E-1,9.424777818E-4,1.867502346E-3,3.490658492E-5
7.768510000E-1,2.303834539E-3,8.552113432E-4,1.919862116E-4
7.808510000E-1,1.605702913E-3,2.094394993E-3,5.410520826E-4
7.848510000E-1,1.274090377E-3,1.361356815E-3,4.712388909E-4
7.888510000E-1,1.483529806E-3,1.012290944E-3,3.141592606E-4
7.928510000E-1,1.692969352E-3,7.679448463E-4,7.155850180E-4
7.968510000E-1,1.448623254E-3,1.012290944E-3,3.665191471E-4
8.008510000E-1,1.378810150E-3,1.675516134E-3,2.792526793E-4
8.048510000E-1,1.815142459E-3,8.028514567E-4,7.155850180E-4
8.088510000E-1,7.155850180E-4,1.919862116E-3,3.665191471E-4
8.128510000E-1,1.483529806E-3,1.466076588E-3,2.792526793E-4
8.168510000E-1,1.099557383E-3,8.901178953E-4,2.617993741E-4
8.208510000E-1,6.806784077E-4,1.343903481E-3,2.443460980E-4
8.248510000E-1,2.530727303E-3,1.308996929E-3,2.443460980E-4
8.288510000E-1,2.862340072E-3,1.762782573E-3,-3.490658492E-5
8.328510000E-1,1.605702913E-3,-5.235987483E-4,1.745329246E-5
8.368510000E-1,2.478367416E-3,6.632251316E-4,-4.014257283E-4
8.408510000E-1,1.343903481E-3,1.291543595E-3,-2.094395168E-4
8.448510000E-1,2.565633971E-3,6.981316837E-4,2.792526793E-4
8.488510000E-1,2.268928103E-3,3.839724232E-4,-4.712388909E-4
8.528510000E-1,1.605702913E-3,3.141592606E-4,-6.806784077E-4
8.568510000E-1,1.867502346E-3,1.343903481E-3,2.967059845E-4
8.608510000E-1,1.186823938E-3,1.623156248E-3,4.188790335E-4
8.648510000E-1,1.623156248E-3,1.239183708E-3,2.967059845E-4
8.688510000E-1,1.727875904E-3,5.235987483E-4,2.617993741E-4
8.728510000E-1,1.762782573E-3,3.490658419E-4,5.585053586E-4
8.768510000E-1,1.605702913E-3,7.504915702E-4,1.221730490E-3
8.808510000E-1,2.024581889E-3,4.014257283E-4,9.599310579E-4
8.848510000E-1,1.378810150E-3,1.064650831E-3,5.759586347E-4
8.888510000E-1,1.518436475E-3,1.099557383E-3,6.283185212E-4
8.928510000E-1,2.146754880E-3,7.853981806E-4,2.094395168E-4
8.968510000E-1,2.321287990E-3,8.726646192E-4,3.839724232E-4
9.008510000E-1,1.448623254E-3,8.901178953E-4,1.396263397E-4
9.048510000E-1,6.283185212E-4,1.343903481E-3,5.235987483E-4
9.088510000E-1,7.155850180E-4,7.155850180E-4,3.141592606E-4
9.128510000E-1,1.797689125E-3,4.014257283E-4,7.155850180E-4
9.168510000E-1,1.169370604E-3,1.972222002E-3,3.665191471E-4
9.208510000E-1,1.605702913E-3,1.623156248E-3,7.330382941E-4
9.248510000E-1,3.665191471E-4,1.239183708E-3,3.665191471E-4
9.288510000E-1,1.919862116E-4,9.773843922E-4,5.759586347E-4
9.328510000E-1,9.075712296E-4,4.712388909E-4,1.535889693E-3
9.368510000E-1,1.239183708E-3,1.239183708E-3,1.343903481E-3
9.408510000E-1,1.780235791E-3,1.291543595E-3,5.235987483E-4
9.448510000E-1,1.308996929E-3,1.902408898E-3,3.141592606E-4
9.488510000E-1,2.094394993E-3,1.151917269E-3,1.012290944E-3
9.528510000E-1,1.553343027E-3,6.632251316E-4,5.934119690E-4
9.568510000E-1,1.413716702E-3,1.588249579E-3,3.316125658E-4
9.608510000E-1,1.815142459E-3,1.518436475E-3,7.155850180E-4
9.648510000E-1,1.623156248E-3,7.679448463E-4,1.413716702E-3
9.688510000E-1,1.727875904E-3,8.552113432E-4,8.552113432E-4
9.728510000E-1,2.356194425E-3,4.363323096E-4,-7.853981806E-4
9.768510000E-1,2.670353744E-3,3.316125658E-4,1.221730490E-4
9.808510000E-1,3.211405827E-3,2.967059845E-4,8.203047328E-4
9.848510000E-1,2.146754880E-3,8.901178953E-4,8.552113432E-4
9.888510000E-1,2.914699726E-3,1.204277156E-3,4.014257283E-4
9.928510000E-1,1.308996929E-3,5.235987483E-4,8.901178953E-4
9.968510000E-1,3.595378250E-3,1.256637042E-3,5.585053586E-4
1.000851000E0,2.391101094E-3,1.134464052E-3,4.886921961E-4
1.004851000E0,1.623156248E-3,8.028514567E-4,-1.221730490E-4
1.008851000E0,1.727875904E-3,8.726646192E-4,1.396263397E-4
1.012851000E0,1.902408898E-3,4.363323096E-4,6.806784077E-4
1.016851000E0,2.094394993E-3,3.316125658E-4,3.665191471E-4
1.020851000E0,3.490658419E-4,1.500983140E-3,-1.570796303E-4
1.024851000E0,1.239183708E-3,7.504915702E-4,1.396263397E-4
1.028851000E0,1.623156248E-3,4.014257283E-4,2.268928074E-4
1.032855687E0,2.478367416E-3,2.565633971E-3,2.443460980E-4
1.036851000E0,1.797689125E-3,3.141592722E-3,2.443460980E-4
1.040851000E0,2.234021435E-3,3.281218931E-3,-1.919862116E-4
1.044851000E0,6.806784077E-4,6.283185212E-4,4.363323096E-4
1.048851000E0,2.792526793E-4,-1.570796361E-3,4.537856148E-4
1.052851000E0,3.141592606E-4,-2.146754880E-3,2.967059845E-4
1.056851000E0,1.535889693E-3,8.726646047E-5,1.012290944E-3
1.060851000E0,2.146754880E-3,2.635447076E-3,1.204277156E-3
1.064851000E0,3.822271014E-3,4.817108624E-3,3.490658419E-4
1.068851000E0,3.351032268E-3,2.967059612E-3,1.221730490E-4
1.072851000E0,8.203047328E-4,8.377580671E-4,3.665191471E-4
1.076851000E0,0.000000000E0,-7.679448463E-4,2.792526793E-4
1.080851000E0,1.308996929E-3,-7.330382941E-4,2.617993741E-4
1.084851000E0,2.234021435E-3,6.108652451E-4,6.981316837E-4
1.088851000E0,3.246312495E-3,2.181661548E-3,3.665191471E-4
1.092851000E0,3.647738136E-3,2.740166849E-3,2.792526793E-4
1.096851000E0,3.159045940E-3,1.082104165E-3,2.617993741E-4
1.100851000E0,1.832595677E-3,1.919862116E-4,2.443460980E-4
1.104851000E0,8.726646192E-4,-6.283185212E-4,6.981316837E-4
1.108851000E0,4.712388909E-4,-8.377580671E-4,6.632251316E-4
1.112851000E0,1.134464052E-3,-1.570796303E-4,1.256637042E-3
1.116851000E0,2.652900526E-3,1.221730490E-3,2.094395168E-4
1.120851000E0,3.508111695E-3,1.727875904E-3,2.443460980E-4
1.124851000E0,3.874630900E-3,2.321287990E-3,6.981316837E-4
1.128851000E0,1.710422686E-3,1.413716702E-3,3.665191471E-4
1.132851000E0,1.151917269E-3,5.759586347E-4,2.792526793E-4
1.136851000E0,1.308996929E-3,-1.570796361E-3,2.617993741E-4
1.140851000E0,1.047197497E-3,-1.396263367E-3,2.443460980E-4
1.144851000E0,1.431170036E-3,4.363323096E-4,-3.490658492E-5
1.148851000E0,2.426007763E-3,2.879793290E-3,1.745329246E-5
1.152851000E0,3.001966281E-3,2.617993858E-3,6.457717973E-4
1.156851000E0,2.984513063E-3,1.343903481E-3,3.490658419E-4
1.160851000E0,1.937315450E-3,7.155850180E-4,2.792526793E-4
1.164851000E0,1.658062800E-3,-3.316125658E-4,2.617993741E-4
1.168851000E0,8.377580671E-4,2.617993741E-4,6.981316837E-4
1.172851000E0,9.250245057E-4,0.000000000E0,8.203047328E-4
1.176851000E0,1.692969352E-3,6.632251316E-4,4.014257283E-4
1.180851000E0,1.745329238E-3,3.839724232E-4,2.792526793E-4
1.184851000E0,3.577925032E-3,1.815142459E-3,7.155850180E-4
1.188851000E0,2.827433404E-3,1.431170036E-3,3.665191471E-4
1.192851000E0,2.356194425E-3,2.094394993E-3,2.792526793E-4
1.196851000E0,1.919862116E-3,1.518436475E-3,-4.712388909E-4
1.200851000E0,1.954768784E-3,-4.363323096E-4,-5.410520826E-4
1.204851000E0,1.815142459E-3,5.410520826E-4,3.490658492E-5
1.208851000E0,3.124139272E-3,1.099557383E-3,6.457717973E-4
1.212851000E0,3.019419499E-3,2.007128671E-3,3.490658419E-4
1.216851000E0,2.844886621E-3,1.186823938E-3,7.330382941E-4
1.220851000E0,2.199114766E-3,6.632251316E-4,-2.094395168E-4
1.224851000E0,9.773843922E-4,8.726646047E-5,2.792526793E-4
1.228851000E0,1.099557383E-3,8.726646047E-5,2.617993741E-4
1.232851000E0,1.291543595E-3,2.268928074E-4,2.443460980E-4
1.236851000E0,2.391101094E-3,2.617993741E-4,6.981316837E-4
1.240851000E0,2.827433404E-3,1.326450263E-3,3.665191471E-4
1.244851000E0,2.338741207E-3,8.552113432E-4,2.792526793E-4
1.248851000E0,1.919862116E-3,1.396263397E-4,-3.490658492E-5
1.252851000E0,9.075712296E-4,3.839724232E-4,4.712388909E-4
1.256851000E0,1.082104165E-3,1.570796303E-4,1.064650831E-3
1.260851000E0,1.588249579E-3,6.981316837E-4,6.108652451E-4
1.264851000E0,1.727875904E-3,3.263765713E-3,7.853981806E-4
1.268851000E0,6.981316837E-4,1.204277156E-3,3.839724232E-4
1.272851000E0,1.483529806E-3,-5.235987919E-5,5.759586347E-4
1.276851000E0,-8.726646047E-5,-1.605702913E-3,7.853981806E-4
1.280851000E0,-6.981316983E-5,-6.457717973E-4,5.410520826E-4
1.284851000E0,-2.094395168E-4,4.241149873E-3,3.316125658E-4
1.288851000E0,1.239183708E-3,7.033676840E-3,2.617993741E-4
1.292851000E0,5.532693584E-3,1.692969352E-2,2.443460980E-4
1.296851000E0,1.869247667E-2,3.998549283E-2,2.059488557E-3
1.300851000E0,3.837978840E-2,7.625343651E-2,1.780235791E-3
1.304851000E0,5.602506921E-2,1.047197580E-1,2.600540640E-3
1.308851000E0,5.974261835E-2,1.113869101E-1,2.809980186E-3
1.312851000E0,5.195845291E-2,9.566149861E-2,3.333578818E-3
1.316851000E0,3.548254445E-2,6.520549953E-2,1.658062800E-3
1.320851000E0,1.747074537E-2,3.466223925E-2,7.679448463E-4
1.324851000E0,8.709193207E-3,1.795943826E-2,3.839724232E-4
1.328851000E0,8.691739291E-3,1.527163107E-2,2.792526793E-4
1.332851000E0,1.260127686E-2,2.420771681E-2,1.169370604E-3
1.336851000E0,1.843067631E-2,3.181735054E-2,7.853981806E-4
1.340851000E0,1.982693933E-2,3.080506064E-2,5.410520826E-4
1.344851000E0,1.385791413E-2,1.877974346E-2,3.316125658E-4
1.348851000E0,5.515240598E-3,7.958701812E-3,2.617993741E-4
1.352851000E0,2.740166849E-3,4.241149873E-3,2.443460980E-4
1.356851000E0,5.916666240E-3,9.878563695E-3,2.443460980E-4
1.360851000E0,1.143190637E-2,1.919862255E-2,9.948377265E-4
1.364851000E0,1.467821933E-2,2.539454028E-2,1.396263397E-4
1.368851000E0,1.581268385E-2,2.324778587E-2,2.268928074E-4
1.372851000E0,1.146681327E-2,1.514945831E-2,2.443460980E-4
1.376851000E0,5.637413356E-3,7.923794910E-3,2.443460980E-4
1.380851000E0,3.822271014E-3,7.679448463E-3,2.443460980E-4
1.384851000E0,6.824237294E-3,1.078613475E-2,2.443460980E-4
1.388851000E0,9.564404376E-3,1.642354764E-2,2.443460980E-4
1.392851000E0,8.464846760E-3,1.398008689E-2,2.443460980E-4
1.396851000E0,7.417649496E-3,8.674286306E-3,2.443460980E-4
1.400851000E0,5.201081280E-3,5.026548170E-3,2.443460980E-4
1.404851000E0,4.764748737E-3,4.084070213E-3,1.151917269E-3
1.408851000E0,4.956734832E-3,5.777040031E-3,4.886921961E-4
1.412851000E0,7.103490178E-3,6.841690745E-3,1.064650831E-3
1.416851000E0,9.930923581E-3,9.965829551E-3,3.141592606E-4
1.420851000E0,1.036725566E-2,1.471312530E-2,8.552113432E-4
1.424851000E0,9.285151958E-3,1.443387289E-2,2.617993741E-4
1.428851000E0,9.599311277E-3,1.315978263E-2,4.014257283E-4
1.432854125E0,7.871435024E-3,1.176351868E-2,4.363323096E-4
1.436851000E0,6.824237294E-3,8.691739291E-3,2.967059845E-4
1.440851000E0,9.843656793E-3,5.934119225E-3,7.155850180E-4
1.444851000E0,6.143558770E-3,5.829399452E-3,1.117010717E-3
1.448851000E0,8.464846760E-3,6.544984877E-3,9.250245057E-4
1.452851000E0,8.185594343E-3,9.145525284E-3,1.483529806E-3
1.456851000E0,6.300638430E-3,8.621926419E-3,1.012290944E-3
1.460851000E0,4.607669078E-3,5.916666240E-3,9.075712296E-4
1.464851000E0,3.403391922E-3,5.061454605E-3,-1.745329246E-5
1.468851000E0,3.996803891E-3,4.991641734E-3,1.745329209E-4
1.472851000E0,4.153883550E-3,5.724680144E-3,5.235987483E-4
1.476851000E0,6.457718089E-3,7.120943163E-3,4.712388909E-4
1.480851000E0,5.550147034E-3,7.487462368E-3,3.141592606E-4
1.484851000E0,6.370451767E-3,7.120943163E-3,-1.745329246E-5
1.488851000E0,5.375613924E-3,7.487462368E-3,1.745329246E-5
1.492851000E0,4.660028964E-3,6.073745899E-3,1.919862116E-4
1.496851000E0,4.328416660E-3,4.363323096E-3,6.806784077E-4
1.500851000E0,2.879793290E-3,1.640609466E-3,3.665191471E-4
1.504851000E0,3.403391922E-3,1.989675453E-3,2.792526793E-4
1.508851000E0,2.652900526E-3,3.892084118E-3,5.585053586E-4
1.512851000E0,4.398229532E-3,5.585053470E-3,4.712388909E-4
1.516851000E0,5.166174378E-3,5.881759338E-3,3.141592606E-4
1.520851000E0,4.904375412E-3,3.996803891E-3,-1.745329209E-4
1.524851000E0,3.647738136E-3,3.508111695E-3,-2.967059845E-4
1.528851000E0,3.752457909E-3,4.886921961E-3,-1.745329209E-4
1.532851000E0,4.852015525E-3,7.051130291E-3,0.000000000E0
1.536851000E0,4.066617228E-3,6.562437862E-3,1.745329209E-4
1.540851000E0,4.625122529E-3,4.031710327E-3,2.268928074E-4
1.544851000E0,3.106686054E-3,3.071779385E-3,6.981316837E-4
1.548851000E0,2.408554312E-3,2.670353744E-3,-3.665191471E-4
1.552851000E0,2.984513063E-3,3.909537569E-3,-5.235987919E-5
1.556851000E0,4.939281847E-3,5.148721393E-3,1.570796303E-4
1.560851000E0,5.602506921E-3,5.916666240E-3,2.268928074E-4
1.564851000E0,4.415682983E-3,5.672320258E-3,5.410520826E-4
1.568851000E0,3.368485486E-3,4.555309191E-3,4.712388909E-4
1.572851000E0,4.886921961E-3,3.804817796E-3,7.504915702E-4
1.576851000E0,3.630284918E-3,4.206243437E-3,3.839724232E-4
1.580851000E0,3.455751808E-3,4.468042869E-3,2.792526793E-4
1.584851000E0,3.857177682E-3,4.084070213E-3,-3.316125658E-4
1.588851000E0,4.869468510E-3,5.480333697E-3,-1.919862116E-4
1.592851000E0,6.492624991E-3,7.958701812E-3,4.363323096E-4
1.596851000E0,7.365289610E-3,8.604473434E-3,9.075712296E-4
1.600851000E0,5.340707488E-3,1.132718660E-2,1.308996929E-3
1.604851000E0,2.391101094E-3,1.144936029E-2,9.773843922E-4
1.608851000E0,4.031710327E-3,7.260569837E-3,4.363323096E-4
1.612851000E0,3.857177682E-3,6.771877408E-3,7.504915702E-4
1.616851000E0,5.009094719E-3,7.382742595E-3,3.839724232E-4
1.620851000E0,5.026548170E-3,8.761553094E-3,7.330382941E-4
1.624851000E0,7.435102481E-3,1.213003788E-2,3.665191471E-4
1.628851000E0,9.861109778E-3,1.391027402E-2,2.792526793E-4
1.632851000E0,9.442231618E-3,1.256637089E-2,4.014257283E-4
1.636851000E0,9.634217247E-3,1.146681327E-2,2.967059845E-4
1.640851000E0,7.120943163E-3,1.087340154E-2,1.047197584E-4
1.644851000E0,8.133234456E-3,1.253146399E-2,2.094395168E-4
1.648851000E0,1.019272301E-2,1.537635084E-2,2.443460980E-4
1.652851000E0,1.043706853E-2,1.685987972E-2,2.443460980E-4
1.656851000E0,1.005309634E-2,1.605702937E-2,5.410520826E-4
1.660851000E0,9.634217247E-3,1.492256485E-2,7.853981806E-4
1.664851000E0,9.232792072E-3,1.389282104E-2,5.410520826E-4
1.668851000E0,9.285151958E-3,1.450368576E-2,3.141592606E-4
1.672851000E0,9.738937020E-3,1.513200440E-2,5.585053586E-4
1.676851000E0,8.813912980E-3,1.410226058E-2,4.886921961E-4
1.680851000E0,7.208209950E-3,9.616764262E-3,3.141592606E-4
1.684851000E0,4.694935866E-3,6.335545331E-3,2.617993741E-4
1.688851000E0,3.438298590E-3,1.256637042E-3,2.443460980E-4
1.692851000E0,3.106686054E-3,5.235987483E-4,2.443460980E-4
1.696851000E0,2.408554312E-3,2.007128671E-3,1.448623254E-3
1.700851000E0,3.892084118E-3,4.799655639E-3,7.155850180E-4
1.704851000E0,5.934119225E-3,7.330382708E-3,3.665191471E-4
1.708851000E0,5.410520826E-3,9.337511845E-3,0.000000000E0
1.712851000E0,6.021386012E-3,8.674286306E-3,1.745329246E-5
1.716851000E0,6.789330859E-3,8.028514683E-3,6.457717973E-4
1.720851000E0,9.686577134E-3,1.373574138E-2,3.490658419E-4
1.724851000E0,1.165879890E-2,2.155481651E-2,2.792526793E-4
1.728851000E0,1.307251584E-2,2.254965343E-2,2.617993741E-4
1.732851000E0,1.073377486E-2,1.768018492E-2,-1.919862116E-4
1.736851000E0,9.965829551E-3,1.024508290E-2,-2.967059845E-4
1.740851000E0,1.188569237E-2,7.382742595E-3,1.012290944E-3
1.744851000E0,1.132718660E-2,1.808161102E-2,4.363323096E-4
1.748851000E0,9.826203808E-3,1.970476657E-2,5.934119690E-4
1.752851000E0,2.967059612E-3,4.153883550E-3,4.886921961E-4
1.756851000E0,-5.585053470E-3,-1.073377486E-2,1.745329246E-5
1.760851000E0,-3.159045940E-3,-1.464331243E-2,-1.047197584E-4
1.764851000E0,8.150687441E-3,3.281218931E-3,7.504915702E-4
1.768851000E0,1.411971357E-2,3.314380348E-2,3.839724232E-4
1.772851000E0,1.357866172E-2,2.830924094E-2,2.792526793E-4
1.776851000E0,-3.246312495E-3,-3.054326167E-3,-1.745329246E-5
1.780851000E0,-1.204277202E-2,-2.755874954E-2,-7.155850180E-4
1.784851000E0,-3.804817796E-3,-1.888446324E-2,-1.396263397E-4
1.788851000E0,1.233947743E-2,1.090830751E-2,4.363323096E-4
1.792851000E0,3.056071512E-2,5.017821491E-2,1.204277156E-3
1.796851000E0,3.504621238E-2,7.129669935E-2,1.850049011E-3
1.800851000E0,1.949532703E-2,4.070107639E-2,8.203047328E-4
1.804851000E0,-8.953538723E-3,-1.701696031E-2,4.014257283E-4
1.808851000E0,-1.911135577E-2,-4.522148147E-2,-7.504915702E-4
1.812851000E0,-1.104793418E-2,-3.146828711E-2,-7.504915702E-4
1.816851000E0,2.181661548E-3,1.762782573E-3,0.000000000E0
1.820851000E0,1.977458037E-2,3.860668465E-2,4.712388909E-4
1.824851000E0,2.905973233E-2,5.457644537E-2,1.658062800E-3
1.828851000E0,1.612684131E-2,2.982767671E-2,7.679448463E-4
1.832852562E0,-3.665191354E-3,-1.034980267E-2,3.839724232E-4
1.836851000E0,-1.094321441E-2,-2.616248466E-2,2.792526793E-4
1.840851000E0,-4.258603323E-3,-1.219985168E-2,2.617993741E-4
1.844851000E0,9.058258496E-3,9.808750823E-3,2.443460980E-4
1.848851000E0,2.247984149E-2,3.813544288E-2,5.410520826E-4
1.852851000E0,3.155555204E-2,5.759586394E-2,2.286381321E-3
1.856851000E0,3.106686100E-2,5.379104614E-2,2.129301662E-3
1.860851000E0,2.251474746E-2,3.487167880E-2,1.186823938E-3
1.864851000E0,1.319468953E-2,1.651081443E-2,9.424777818E-4
1.868851000E0,9.110618383E-3,1.172861271E-2,0.000000000E0
1.872851000E0,1.014036313E-2,1.530653704E-2,4.712388909E-4
1.876851000E0,1.132718660E-2,2.076941729E-2,4.537856148E-4
1.880851000E0,8.621926419E-3,1.647590846E-2,5.934119690E-4
1.884851000E0,4.904375412E-3,6.771877408E-3,4.886921961E-4
1.888851000E0,3.630284918E-3,1.361356815E-3,3.141592606E-4
1.892851000E0,4.049163777E-3,2.967059612E-3,7.155850180E-4
1.896851000E0,7.016223390E-3,9.110618383E-3,-6.981316983E-5
1.900851000E0,9.005898610E-3,1.178097259E-2,1.570796303E-4
1.904851000E0,6.213372108E-3,9.913469665E-3,2.268928074E-4
1.908851000E0,5.323254038E-3,4.747295752E-3,2.443460980E-4
1.912851000E0,7.661995478E-3,6.108652335E-3,-3.490658492E-5
1.916851000E0,1.022762898E-2,1.338667516E-2,3.141592606E-4
1.920851000E0,1.466076542E-2,2.115339041E-2,-1.745329246E-5
1.924851000E0,1.656317525E-2,2.892010473E-2,4.712388909E-4
1.928851000E0,1.722639985E-2,2.822197415E-2,9.075712296E-4
1.932851000E0,1.361356769E-2,2.473131567E-2,4.188790335E-4
1.936851000E0,1.239183731E-2,1.975712739E-2,2.967059845E-4
1.940851000E0,1.099557430E-2,1.649336144E-2,-1.745329246E-5
1.944851000E0,1.019272301E-2,1.640609466E-2,1.745329246E-5
1.948854125E0,8.936085738E-3,1.473057922E-2,1.919862116E-4
1.952851000E0,7.086036727E-3,1.007054932E-2,5.235987483E-4
1.956851000E0,6.318091881E-3,5.689773243E-3,4.712388909E-4
1.960851000E0,4.904375412E-3,4.555309191E-3,-7.330382941E-4
1.964851000E0,5.742133129E-3,6.056292448E-3,4.363323096E-4
1.968851000E0,5.515240598E-3,6.754423957E-3,9.075712296E-4
1.972851000E0,4.991641734E-3,6.335545331E-3,4.188790335E-4
1.976851000E0,4.258603323E-3,5.026548170E-3,5.934119690E-4
1.980851000E0,2.862340072E-3,4.223696887E-3,4.886921961E-4
1.984851000E0,2.199114766E-3,4.625122529E-3,1.745329246E-5
1.988851000E0,4.136430100E-3,5.777040031E-3,4.886921961E-4
1.992851000E0,5.550147034E-3,8.953538723E-3,3.141592606E-4
1.996851000E0,6.073745899E-3,9.023352526E-3,2.617993741E-4
2.000851000E0,5.445427261E-3,7.522369269E-3,6.981316837E-4
2.004851000E0,5.881759338E-3,7.592182141E-3,8.203047328E-4
2.008851000E0,5.235987715E-3,7.609635592E-3,6.981316837E-4
2.012851000E0,6.736970972E-3,8.656833321E-3,1.570796361E-3
2.016851000E0,8.482299745E-3,1.029744279E-2,2.391101094E-3
2.020851000E0,9.546951391E-3,1.237438433E-2,2.164208330E-3
2.024851000E0,7.400196046E-3,1.066396199E-2,2.251474652E-3
2.028851000E0,4.886921961E-3,6.457718089E-3,1.378810150E-3
2.032851000E0,1.832595677E-3,1.588249579E-3,1.745329238E-3
2.036851000E0,1.029744279E-3,-1.169370604E-3,2.286381321E-3
2.040851000E0,6.632251316E-4,-4.136430100E-3,1.535889693E-3
2.044851000E0,7.155850180E-4,-1.623156248E-3,8.901178953E-4
2.048851000E0,3.141592722E-3,3.385938704E-3,5.585053586E-4
2.052851000E0,4.677482415E-3,8.325220086E-3,3.316125658E-4
2.056851000E0,5.532693584E-3,1.157153305E-2,1.169370604E-3
2.060851000E0,6.806783844E-3,1.511455141E-2,4.886921961E-4
2.064851000E0,7.138396613E-3,1.410226058E-2,3.141592606E-4
2.068851000E0,5.131267942E-3,8.552113548E-3,7.155850180E-4
2.072851000E0,2.495820867E-3,2.129301662E-3,1.413716702E-3
2.076851000E0,1.343903481E-3,1.745329246E-5,1.012290944E-3
2.080851000E0,1.500983140E-3,-5.235987483E-4,2.967059845E-4
2.084851000E0,2.897246508E-3,6.632251316E-4,-1.745329209E-4
2.088851000E0,3.874630900E-3,3.996803891E-3,4.363323096E-4
2.092851000E0,3.368485486E-3,5.026548170E-3,1.204277156E-3
2.096851000E0,3.246312495E-3,5.585053470E-3,6.457717973E-4
2.100851000E0,3.193952609E-3,3.769911127E-3,8.028514567E-4
2.104851000E0,1.378810150E-3,1.954768784E-3,3.839724232E-4
2.108851000E0,1.658062800E-3,1.466076588E-3,-1.570796303E-4
2.112851000E0,1.431170036E-3,1.500983140E-3,1.396263397E-4
2.116851000E0,2.879793290E-3,3.298672382E-3,-5.235987483E-4
2.120851000E0,2.967059612E-3,4.537856206E-3,-5.410520826E-4
2.124851000E0,4.031710327E-3,3.804817796E-3,-4.014257283E-4
2.128851000E0,3.263765713E-3,2.862340072E-3,6.981316983E-5
2.132851000E0,2.600540640E-3,1.256637042E-3,2.094395168E-4
2.136851000E0,3.333578818E-3,1.291543595E-3,2.443460980E-4
2.140851000E0,4.276056774E-3,2.495820867E-3,2.443460980E-4
2.144851000E0,4.084070213E-3,3.717551241E-3,2.443460980E-4
2.148851000E0,3.577925032E-3,4.031710327E-3,2.443460980E-4
2.152851000E0,5.550147034E-3,5.026548170E-3,-1.919862116E-4
2.156851000E0,5.148721393E-3,6.946410518E-3,1.221730490E-4
2.160851000E0,3.700098023E-3,5.637413356E-3,-6.981316983E-5
2.164851000E0,3.019419499E-3,2.879793290E-3,1.745329246E-5
2.168851000E0,1.780235791E-3,8.203047328E-4,1.919862116E-4
2.172851000E0,1.623156248E-3,2.617993741E-4,2.268928074E-4
2.176854125E0,1.867502346E-3,2.792526793E-4,-9.424777818E-4
2.180854125E0,2.251474652E-3,5.759586347E-4,-6.457717973E-4
2.184851000E0,3.089232836E-3,8.203047328E-4,1.745329246E-5
2.188854125E0,4.066617228E-3,1.919862116E-3,-1.047197584E-4
2.192854125E0,2.967059612E-3,4.625122529E-3,4.537856148E-4
2.196852562E0,4.939281847E-3,7.138396613E-3,0.000000000E0
2.200851000E0,6.510077976E-3,9.005898610E-3,3.490658492E-5
2.204851000E0,7.679448463E-3,1.143190637E-2,4.886921961E-4
2.208851000E0,7.819075137E-3,1.312487572E-2,4.712388909E-4
2.212854125E0,8.307767101E-3,1.342158206E-2,2.967059845E-4
2.216851000E0,6.789330859E-3,1.469567232E-2,1.012290944E-3
2.220851000E0,6.684611086E-3,1.322959550E-2,5.934119690E-4
2.224851000E0,5.602506921E-3,1.014036313E-2,6.457717973E-4
2.228851000E0,2.617993858E-3,2.705260413E-3,5.061454722E-4
2.232857250E0,1.832595677E-3,-1.937315450E-3,3.141592606E-4
2.236854125E0,2.792526793E-4,-7.504915819E-3,2.617993741E-4
2.240854125E0,3.141592606E-4,-7.766715251E-3,5.585053586E-4
2.244851000E0,1.082104165E-3,-5.864306353E-3,7.853981806E-4
2.248854125E0,2.181661548E-3,-2.216568217E-3,8.377580671E-4
2.252851000E0,2.635447076E-3,1.588249579E-3,2.617993741E-4
2.256851000E0,4.101523664E-3,5.445427261E-3,-1.919862116E-4
2.260851000E0,6.143558770E-3,9.459684603E-3,0.000000000E0
2.264851000E0,8.779006079E-3,1.396263391E-2,1.745329209E-4
2.268854125E0,1.082104165E-2,1.905899495E-2,5.235987483E-4
2.272851000E0,1.254891697E-2,2.113593742E-2,1.064650831E-3
2.276852562E0,1.150172018E-2,1.926843449E-2,1.815142459E-3
2.280854125E0,1.092576142E-2,1.577777602E-2,1.710422686E-3
2.284854125E0,9.128072299E-3,1.200786512E-2,1.239183708E-3
2.288852562E0,8.045967668E-3,6.806783844E-3,1.099557383E-3
2.292851000E0,4.747295752E-3,1.675516134E-3,1.518436475E-3
2.296851000E0,2.687806962E-3,-4.747295752E-3,1.186823938E-3
2.300851000E0,2.146754880E-3,-7.487462368E-3,1.239183708E-3
2.304854125E0,2.007128671E-3,-7.295476273E-3,1.117010717E-3
2.308851000E0,2.443460980E-3,-5.899212789E-3,1.675516134E-3
2.312851000E0,1.343903481E-3,-3.281218931E-3,2.268928103E-3
2.316851000E0,2.548180753E-3,-7.853981806E-4,2.129301662E-3
2.320851000E0,4.537856206E-3,1.658062800E-3,1.797689125E-3
2.324851000E0,5.044001620E-3,4.555309191E-3,1.256637042E-3
2.328851000E0,5.637413356E-3,9.372417815E-3,1.256637042E-3
2.332851000E0,7.435102481E-3,1.064650808E-2,1.570796361E-3
2.336851000E0,7.016223390E-3,1.066396199E-2,1.047197497E-3
2.340851000E0,4.782202188E-3,9.773843922E-3,4.537856148E-4
2.344851000E0,4.799655639E-3,6.073745899E-3,0.000000000E0
2.348851000E0,1.954768784E-3,-8.901178953E-4,-4.014257283E-4
2.352851000E0,1.064650831E-3,-4.398229532E-3,-1.867502346E-3
2.356851000E0,-2.094395168E-4,-7.243116386E-3,-4.660028964E-3
2.360851000E0,-1.291543595E-3,-1.024508290E-2,-4.642575979E-3
2.364851000E0,-2.478367416E-3,-1.012290921E-2,-4.764748737E-3
2.368851000E0,-5.410520826E-4,-8.447393775E-3,-5.864306353E-3
2.372851000E0,5.585053586E-4,-4.537856206E-3,-6.003932562E-3
2.376851000E0,1.745329238E-3,-8.028514567E-4,-5.724680144E-3
2.380854125E0,4.310963210E-3,4.345869645E-3,-6.719517522E-3
2.384854125E0,7.243116386E-3,9.477137588E-3,-6.230825558E-3
2.388854125E0,9.965829551E-3,1.411971357E-2,-6.998770405E-3
2.392854125E0,1.022762898E-2,1.609193534E-2,-6.597344764E-3
2.396852562E0,1.075122785E-2,1.480039209E-2,-7.243116386E-3
2.400851000E0,8.918632753E-3,1.158898603E-2,-1.027998887E-2
2.404851000E0,6.946410518E-3,7.609635592E-3,-1.000073645E-2
2.408851000E0,5.375613924E-3,4.153883550E-3,-1.129228063E-2
2.412851000E0,3.909537569E-3,-1.919862116E-4,-1.253146399E-2
2.416851000E0,1.413716702E-3,-2.548180753E-3,-1.329940930E-2
2.420851000E0,1.745329209E-4,-5.410520826E-3,-1.457349956E-2
2.424851000E0,2.967059845E-4,-5.846852902E-3,-1.504473854E-2
2.428851000E0,9.250245057E-4,-6.265731994E-3,-1.666789502E-2
2.432851000E0,2.897246508E-3,-5.026548170E-3,-1.724385284E-2
2.436851000E0,2.967059612E-3,-1.692969352E-3,-1.951278187E-2
2.440851000E0,2.234021435E-3,8.203047328E-4,-2.083923109E-2
2.444851000E0,3.857177682E-3,2.530727303E-3,-2.209586836E-2
2.448851000E0,8.307767101E-3,2.391101094E-3,-2.242748067E-2
2.452851000E0,4.677482415E-3,4.747295752E-3,-2.356194519E-2
2.456851000E0,2.687806962E-3,5.811946467E-3,-2.356194519E-2
2.460851000E0,8.604473434E-3,1.117010717E-3,-2.565634064E-2
2.464851000E0,3.106686054E-3,8.639379404E-3,-2.591813914E-2
2.468851000E0,2.722713631E-3,5.166174378E-3,-2.703515068E-2
2.472851000E0,-1.884955564E-3,-5.235987919E-5,-2.778564207E-2
2.476851000E0,8.220500313E-3,3.892084118E-3,-3.007202223E-2
2.480851000E0,-3.316125658E-4,2.775073517E-3,-3.143338114E-2
2.484851000E0,1.832595677E-3,3.316125658E-4,-3.328342736E-2
2.488851000E0,1.919862116E-3,-5.934119690E-4,-3.363249451E-2
2.492851000E0,1.658062800E-3,-1.588249579E-3,-3.522074595E-2
2.496851000E0,2.792526735E-3,-3.054326167E-3,-3.728023171E-2
2.500851000E0,2.024581889E-3,-2.984513063E-3,-3.677408770E-2
2.504851000E0,2.740166849E-3,-3.560471581E-3,-3.799581900E-2
2.508851000E0,1.867502346E-3,-2.513274085E-3,-3.755948693E-2
2.512851000E0,2.844886621E-3,-1.186823938E-3,-3.895574808E-2
2.516851000E0,3.857177682E-3,-8.377580671E-4,-3.930481523E-2
2.520851000E0,3.665191354E-3,4.363323096E-4,-4.166100919E-2
2.524851000E0,3.909537569E-3,3.316125658E-4,-4.272565991E-2
2.528851000E0,3.228859045E-3,1.343903481E-3,-4.450589418E-2
2.532851000E0,5.305801053E-3,2.373647876E-3,-4.679227620E-2
2.536851000E0,2.844886621E-3,2.635447076E-3,-4.918337986E-2
2.540851000E0,3.839724232E-3,2.408554312E-3,-5.206317082E-2
2.544851000E0,3.368485486E-3,2.338741207E-3,-5.342452973E-2
2.548851000E0,3.228859045E-3,1.867502346E-3,-5.677555874E-2
2.552851000E0,3.054326167E-3,1.902408898E-3,-5.977752805E-2
2.556851000E0,3.298672382E-3,1.762782573E-3,-6.265731901E-2
2.560851000E0,3.525565146E-3,2.932153177E-3,-6.717772037E-2
2.564851000E0,3.874630900E-3,3.839724232E-3,-7.091272622E-2
2.568851000E0,4.276056774E-3,1.815142459E-3,-7.443828881E-2
2.572851000E0,3.316125600E-3,6.806784077E-4,-7.897614688E-2
2.576851000E0,3.525565146E-3,-8.028514567E-4,-8.482300490E-2
2.580851000E0,3.874630900E-3,-3.735004691E-3,-8.874998987E-2
2.584851000E0,2.775073517E-3,-5.270894151E-3,-9.234537184E-2
2.588851000E0,3.071779385E-3,-8.674286306E-3,-9.538224339E-2
2.592851000E0,2.705260413E-3,-1.076868176E-2,-9.964084625E-2
2.596851000E0,3.211405827E-3,-1.192059834E-2,-1.027126238E-1
2.600851000E0,2.443460980E-3,-9.354964830E-3,-1.062207371E-1
2.604851000E0,3.141592722E-3,-7.033676840E-3,-1.078788042E-1
2.608851000E0,3.787364578E-3,-3.577925032E-3,-1.101302728E-1
2.612851000E0,3.944444004E-3,-1.308996929E-3,-1.114567220E-1
2.616851000E0,5.340707488E-3,3.752457909E-3,-1.133067757E-1
2.620851000E0,3.298672382E-3,6.038838997E-3,-1.148601174E-1
2.624851000E0,6.091198884E-3,1.066396199E-2,-1.167450696E-1
2.628851000E0,3.944444004E-3,9.773843922E-3,-1.190663576E-1
2.632855687E0,5.044001620E-3,6.824237294E-3,-1.214749143E-1
2.636851000E0,5.026548170E-3,7.103490178E-3,-1.234471351E-1
2.640851000E0,5.777040031E-3,5.235987715E-3,-1.262222081E-1
2.644851000E0,3.717551241E-3,3.071779385E-3,-1.304109991E-1
2.648851000E0,3.769911127E-3,8.726646192E-4,-1.358564347E-1
2.652851000E0,3.490658477E-3,-2.268928103E-3,-1.409004331E-1
2.656851000E0,3.560471581E-3,-3.368485486E-3,-1.474803239E-1
2.660851000E0,3.298672382E-3,-3.979350906E-3,-1.558229923E-1
2.664851000E0,2.757620299E-3,-5.323254038E-3,-1.631184667E-1
2.668851000E0,3.682644805E-3,-6.126105785E-3,-1.708851904E-1
2.672851000E0,3.019419499E-3,-6.352998316E-3,-1.786344498E-1
2.676851000E0,4.799655639E-3,-6.248278543E-3,-1.847256422E-1
2.680851000E0,6.771877408E-3,-2.757620299E-3,-1.918640435E-1
2.684851000E0,9.232792072E-3,-1.692969352E-3,-1.967509687E-1
2.688851000E0,8.534659632E-3,-5.235987483E-4,-2.017775178E-1
2.692851000E0,9.250245057E-3,6.981316983E-5,-2.076069117E-1
2.696851000E0,9.738937020E-3,1.134464052E-3,-2.115513533E-1
2.700851000E0,9.704031050E-3,9.599310579E-4,-2.143787891E-1
2.704851000E0,9.267698042E-3,-8.901178953E-4,-2.163161039E-1
2.708851000E0,8.534659632E-3,0.000000000E0,-2.186373919E-1
2.712851000E0,8.342674002E-3,-5.235987483E-4,-2.208888680E-1
2.716851000E0,7.086036727E-3,5.061454722E-4,-2.222327739E-1
2.720851000E0,6.911503617E-3,1.099557383E-3,-2.228785455E-1
2.724851000E0,5.811946467E-3,5.235987919E-5,-2.239431888E-1
2.728851000E0,5.672320258E-3,-3.665191471E-4,-2.249729335E-1
2.732851000E0,6.405358203E-3,-1.745329209E-4,-2.272069603E-1
2.736851000E0,5.235987715E-3,6.108652451E-4,-2.276432961E-1
2.740851000E0,6.579891313E-3,-1.413716702E-3,-2.294060737E-1
2.744851000E0,5.881759338E-3,-6.108652451E-4,-2.303136438E-1
2.748851000E0,6.143558770E-3,-2.495820867E-3,-2.305579931E-1
2.752851000E0,6.527531426E-3,-3.438298590E-3,-2.298773080E-1
2.756851000E0,6.614797749E-3,-1.117010717E-3,-2.298424095E-1
2.760851000E0,8.744099177E-3,-3.228859045E-3,-2.293886244E-1
2.764851000E0,7.801621687E-3,-1.815142459E-3,-2.274513096E-1
2.768851000E0,9.965829551E-3,-4.468042869E-3,-2.260550410E-1
2.772851000E0,8.272860199E-3,-2.007128671E-3,-2.229658067E-1
2.776851000E0,8.115780540E-3,-2.705260413E-3,-2.199114859E-1
2.780851000E0,7.347836159E-3,-9.424777818E-4,-2.167000771E-1
2.784851000E0,8.639379404E-3,-9.250245057E-4,-2.128603607E-1
2.788851000E0,4.904375412E-3,2.530727303E-3,-2.090031803E-1
2.792851000E0,6.056292448E-3,8.726646192E-4,-2.046747655E-1
2.796851000E0,4.677482415E-3,1.186823938E-3,-2.018996924E-1
2.800851000E0,5.986479111E-3,2.775073517E-3,-1.972571164E-1
2.804851000E0,6.335545331E-3,3.193952609E-3,-1.940980703E-1
2.808851000E0,6.719517522E-3,4.206243437E-3,-1.907121241E-1
2.812851000E0,7.120943163E-3,2.967059612E-3,-1.863662601E-1
2.816851000E0,6.318091881E-3,4.590216093E-3,-1.828232408E-1
2.820851000E0,7.609635592E-3,2.321287990E-3,-1.791929603E-1
2.824851000E0,7.958701812E-3,2.914699726E-3,-1.743234843E-1
2.828851000E0,6.684611086E-3,5.044001620E-3,-1.712516993E-1
2.832851000E0,7.417649496E-3,4.677482415E-3,-1.677435935E-1
2.836851000E0,7.592182141E-3,5.340707488E-3,-1.648637950E-1
2.840851000E0,8.552113548E-3,6.126105785E-3,-1.603608578E-1
2.844851000E0,6.544984877E-3,6.771877408E-3,-1.575159580E-1
2.848851000E0,6.318091881E-3,6.038838997E-3,-1.540776640E-1
2.852851000E0,8.377579972E-3,2.076941775E-3,-1.519658118E-1
2.856851000E0,8.447393775E-3,1.658062800E-3,-1.472185254E-1
2.860851000E0,6.667157635E-3,1.692969352E-3,-1.435533315E-1
2.864851000E0,5.305801053E-3,6.632251316E-4,-1.404990107E-1
2.868851000E0,4.799655639E-3,-1.256637042E-3,-1.360833198E-1
2.872851000E0,3.316125600E-3,-5.532693584E-3,-1.325403005E-1
2.876851000E0,2.617993858E-3,-7.993607782E-3,-1.296430528E-1
2.880851000E0,1.832595677E-3,-9.546951391E-3,-1.251401007E-1
2.884851000E0,-1.570796303E-4,-9.634217247E-3,-1.218414381E-1
2.888851000E0,2.094395168E-4,-1.298524998E-2,-1.184205860E-1
2.892851000E0,2.967059845E-4,-1.460840553E-2,-1.163261905E-1
2.896851000E0,3.490658492E-5,-1.398008689E-2,-1.126260981E-1
2.900851000E0,1.047197584E-4,-1.305506285E-2,-1.074424684E-1
2.904851000E0,5.759586347E-4,-1.221730467E-2,-1.044405028E-1
2.908851000E0,1.047197584E-4,-9.442231618E-3,-1.012465507E-1
2.912851000E0,1.029744279E-3,-6.003932562E-3,-9.815731645E-2
2.916851000E0,1.727875904E-3,-2.391101094E-3,-9.478883445E-2
2.920851000E0,4.014257342E-3,-1.047197584E-4,-9.255480766E-2
2.924851000E0,4.904375412E-3,4.694935866E-3,-8.972737938E-2
2.928851000E0,5.148721393E-3,7.016223390E-3,-8.656833321E-2
2.932851000E0,3.996803891E-3,1.031489577E-2,-8.318239450E-2
2.936851000E0,4.310963210E-3,1.148426626E-2,-7.929030806E-2
2.940851000E0,5.742133129E-3,1.178097259E-2,-7.511897385E-2
2.944851000E0,6.265731994E-3,1.216494478E-2,-7.208209485E-2
2.948851000E0,5.497787148E-3,1.075122785E-2,-6.932447851E-2
2.952851000E0,4.555309191E-3,1.008800324E-2,-6.499606371E-2
2.956851000E0,5.340707488E-3,9.616764262E-3,-6.236061454E-2
2.960851000E0,4.956734832E-3,6.178465672E-3,-5.836381018E-2
2.964851000E0,3.647738136E-3,5.131267942E-3,-5.386086181E-2
2.968851000E0,3.316125600E-3,3.211405827E-3,-4.862487316E-2
2.972851000E0,2.024581889E-3,2.251474652E-3,-4.363323003E-2
2.976851000E0,7.679448463E-4,2.007128671E-3,-3.858922794E-2
2.980851000E0,4.537856148E-4,1.186823938E-3,-3.303908184E-2
2.984851000E0,5.235987483E-4,-6.981316983E-5,-2.708750963E-2
2.988851000E0,1.588249579E-3,-2.809980186E-3,-2.312561311E-2
2.992851000E0,-8.203047328E-4,-2.164208330E-3,-2.089159191E-2
2.996851000E0,4.712388909E-4,-4.101523664E-3,-1.743583940E-2
3.000851000E0,-5.061454722E-4,-3.857177682E-3,-1.488765888E-2
3.004851000E0,-1.832595677E-3,-1.989675453E-3,-1.122246683E-2
3.008851000E0,-6.981316983E-5,-2.844886621E-3,-7.243116386E-3
3.012851000E0,-3.490658419E-4,3.665191471E-4,-5.759586580E-3
3.016851000E0,0.000000000E0,1.064650831E-3,-3.263765713E-3
3.020851000E0,5.585053586E-4,3.647738136E-3,3.839724232E-4
3.024851000E0,1.902408898E-3,2.967059612E-3,2.094394993E-3
3.028851000E0,2.111848444E-3,3.682644805E-3,3.281218931E-3
3.032855687E0,1.099557383E-3,4.485496320E-3,7.504915819E-3
3.036851000E0,9.948377265E-4,4.380776547E-3,9.965829551E-3
3.040851000E0,1.413716702E-3,4.223696887E-3,1.302015595E-2
3.044851000E0,3.176499158E-3,2.356194425E-3,1.623156108E-2
3.048851000E0,1.378810150E-3,3.089232836E-3,1.961750165E-2
3.052851000E0,2.408554312E-3,1.308996929E-3,2.350958437E-2
3.056851000E0,1.029744279E-3,1.448623254E-3,2.693043090E-2
3.060851000E0,3.665191471E-4,2.408554312E-3,3.054326214E-2
3.064851000E0,3.490658419E-4,1.134464052E-3,3.523819894E-2
3.068851000E0,-1.151917269E-3,1.256637042E-3,3.993313387E-2
3.072851000E0,-1.239183708E-3,6.981316837E-4,4.310963303E-2
3.076851000E0,-5.061454722E-4,1.291543595E-3,4.769985005E-2
3.080851000E0,-3.141592606E-4,1.151917269E-3,5.311036855E-2
3.084851000E0,1.745329246E-5,9.599310579E-4,5.722934753E-2
3.088851000E0,-7.853981806E-4,4.537856148E-4,6.056292355E-2
3.092851000E0,-1.448623254E-3,-8.552113432E-4,6.354743987E-2
3.096851000E0,-2.076941775E-3,1.221730490E-4,6.658431143E-2
3.100851000E0,-2.094394993E-3,5.951572675E-3,6.857398897E-2
3.104851000E0,-5.934119690E-4,7.504915819E-3,7.209955156E-2
3.108851000E0,-1.989675453E-3,6.824237294E-3,7.452555746E-2
3.112851000E0,-1.151917269E-3,3.333578818E-3,7.908086479E-2
3.116851000E0,-9.424777818E-4,3.787364578E-3,8.115781099E-2
3.120851000E0,-4.363323096E-4,3.752457909E-3,8.410741389E-2
3.124851000E0,-9.075712296E-4,4.206243437E-3,8.730136603E-2
3.128851000E0,-7.155850180E-4,3.874630900E-3,8.977973461E-2
3.132851000E0,-3.839724232E-4,4.380776547E-3,9.374163300E-2
3.136851000E0,-1.797689125E-3,4.817108624E-3,9.688322991E-2
3.140851000E0,-1.710422686E-3,5.218534265E-3,9.861110151E-2
3.144851000E0,-1.082104165E-3,6.544984877E-3,1.008625776E-1
3.148851000E0,-6.283185212E-4,6.876597181E-3,1.029395163E-1
3.152851000E0,-8.028514567E-4,7.871435024E-3,1.056098714E-1
3.156851000E0,1.919862116E-4,9.197885171E-3,1.056971401E-1
3.160851000E0,4.537856148E-4,9.826203808E-3,1.073726565E-1
3.164851000E0,3.665191471E-4,1.090830751E-2,1.085594818E-1
3.168851000E0,3.490658419E-4,1.043706853E-2,1.091703475E-1
3.172851000E0,3.490658419E-4,9.546951391E-3,1.096415818E-1
3.176851000E0,3.316125658E-4,7.976154797E-3,1.091528907E-1
3.180851000E0,3.316125658E-4,7.243116386E-3,1.082802266E-1
3.184851000E0,3.316125658E-4,7.068583276E-3,1.078962535E-1
3.188851000E0,3.490658492E-5,4.310963210E-3,1.071981192E-1
3.192851000E0,-1.082104165E-3,3.141592722E-3,1.065523475E-1
3.196851000E0,-1.675516134E-3,1.780235791E-3,1.051909924E-1
3.200851000E0,-1.535889693E-3,-6.981316983E-5,1.027300805E-1
3.204851000E0,-3.752457909E-3,-4.014257283E-4,1.014734432E-1
3.208851000E0,-4.328416660E-3,-2.443460980E-3,1.002517119E-1
3.212851000E0,-4.171337001E-3,-3.124139272E-3,9.691813588E-2
3.216851000E0,-3.682644805E-3,-3.159045940E-3,9.604547173E-2
3.220851000E0,-4.904375412E-3,-3.455751808E-3,9.506808221E-2
3.224851000E0,-2.827433404E-3,-3.839724232E-3,9.330530465E-2
3.228851000E0,-2.426007763E-3,-9.250245057E-4,9.164723754E-2
3.232851000E0,-1.867502346E-3,8.552113432E-4,8.955284208E-2
3.236851000E0,-2.338741207E-3,4.799655639E-3,8.796459436E-2
3.240851000E0,-8.028514567E-4,4.921828397E-3,8.634144068E-2
3.244851000E0,-8.726646047E-5,4.799655639E-3,8.410741389E-2
3.248851000E0,-3.665191471E-4,6.876597181E-3,8.398524672E-2
3.252851000E0,-1.047197497E-3,7.574729156E-3,8.319984376E-2
3.256851000E0,1.221730490E-4,6.405358203E-3,8.117526025E-2
3.260851000E0,1.396263397E-4,6.702064537E-3,8.096582443E-2
3.264851000E0,-1.570796303E-4,5.270894151E-3,7.955210656E-2
3.268851000E0,-2.268928074E-4,4.136430100E-3,7.857472450E-2
3.272851000E0,-8.726646047E-5,5.201081280E-3,7.637561113E-2
3.276851000E0,-9.599310579E-4,4.433136433E-3,7.428121567E-2
3.280851000E0,-2.251474652E-3,3.019419499E-3,7.164576650E-2
3.284851000E0,-1.378810150E-3,2.495820867E-3,6.913249195E-2
3.288851000E0,-8.377580671E-4,3.281218931E-3,6.698573381E-2
3.292851000E0,-5.585053586E-4,2.268928103E-3,6.597344577E-2
3.296851000E0,-3.316125658E-4,1.396263367E-3,6.344271451E-2
3.300851000E0,-5.759586347E-4,3.892084118E-3,6.188937649E-2
3.304851000E0,4.014257283E-4,3.787364578E-3,5.951572582E-2
3.308851000E0,-3.839724232E-4,3.298672382E-3,5.860815570E-2
3.312851000E0,4.363323096E-4,2.879793290E-3,5.777039751E-2
3.316851000E0,-9.599310579E-4,5.619960371E-3,5.649630725E-2
3.320851000E0,8.901178953E-4,3.193952609E-3,5.419247225E-2
3.324851000E0,-8.726646047E-5,3.752457909E-3,5.391322076E-2
3.328851000E0,-6.632251316E-4,1.954768784E-3,5.021312088E-2
3.332855687E0,-2.094395168E-4,1.919862116E-3,4.970697686E-2
3.336851000E0,-2.443460980E-4,2.967059612E-3,4.776966199E-2
3.340851000E0,-1.151917269E-3,2.338741207E-3,4.515166581E-2
3.344851000E0,-1.919862116E-4,8.203047328E-4,4.251622036E-2
3.348851000E0,-2.792526735E-3,2.076941775E-3,3.911282867E-2
3.352851000E0,-1.518436475E-3,1.658062800E-3,3.597123548E-2
3.356851000E0,-2.076941775E-3,2.740166849E-3,3.169517964E-2
3.360851000E0,-1.047197497E-3,1.675516134E-3,2.741912194E-2
3.364851000E0,-4.537856148E-4,6.457717973E-4,2.253220044E-2
3.368851000E0,-3.141592606E-4,3.839724232E-4,1.809906401E-2
3.372851000E0,-4.188790335E-4,7.679448463E-4,1.378810126E-2
3.376851000E0,-2.967059845E-4,4.014257283E-4,9.791296907E-3
3.380851000E0,-5.585053586E-4,6.108652451E-4,5.602506921E-3
3.384851000E0,-1.239183708E-3,5.235987483E-4,1.797689125E-3
3.388851000E0,-8.028514567E-4,-6.806784077E-4,-1.588249579E-3
3.392851000E0,-1.151917269E-3,-5.585053586E-4,-6.230825558E-3
3.396851000E0,-3.490658419E-4,-1.884955564E-3,-1.090830751E-2
3.400851000E0,1.570796303E-4,-4.188790335E-4,-1.469567232E-2
3.404851000E0,2.967059845E-4,-1.919862116E-4,-1.778490469E-2
3.408851000E0,-1.047197584E-4,4.537856148E-4,-2.206096239E-2
3.412851000E0,1.570796361E-3,1.239183708E-3,-2.617993951E-2
3.416851000E0,1.867502346E-3,3.089232836E-3,-2.935643867E-2
3.420851000E0,1.937315450E-3,6.283185445E-3,-3.260274976E-2
3.424851000E0,2.722713631E-3,7.120943163E-3,-3.525565192E-2
3.428851000E0,2.164208330E-3,8.098327555E-3,-3.879866749E-2
3.432854125E0,2.914699726E-3,8.045967668E-3,-4.197516665E-2
3.436851000E0,2.373647876E-3,8.936085738E-3,-4.401720315E-2
3.440851000E0,2.059488557E-3,7.958701812E-3,-4.815363511E-2
3.444851000E0,1.850049011E-3,6.946410518E-3,-4.984660447E-2
3.448851000E0,1.029744279E-3,6.387905218E-3,-5.162683874E-2
3.452851000E0,1.431170036E-3,3.525565146E-3,-5.420992523E-2
3.456851000E0,7.679448463E-4,3.996803891E-3,-5.743878707E-2
3.460851000E0,4.537856148E-4,8.028514567E-4,-5.948081985E-2
3.464851000E0,3.665191471E-4,2.617993741E-4,-6.213372201E-2
3.468851000E0,3.490658419E-4,-1.500983140E-3,-6.311110407E-2
3.472851000E0,3.490658419E-4,-2.426007763E-3,-6.609562039E-2
3.476851000E0,-8.726646047E-5,-4.328416660E-3,-6.640977412E-2
3.480851000E0,2.268928074E-4,-3.019419499E-3,-6.724753231E-2
3.484851000E0,0.000000000E0,-3.124139272E-3,-6.897541136E-2
3.488851000E0,-3.316125658E-4,-1.047197497E-3,-7.031931728E-2
3.492851000E0,-1.221730490E-4,-5.235987919E-5,-7.143632323E-2
3.496851000E0,3.665191471E-4,7.853981806E-4,-7.126179338E-2
3.500851000E0,1.396263367E-3,3.124139272E-3,-7.182029635E-2
3.504851000E0,1.658062800E-3,6.003932562E-3,-7.195992768E-2
3.508851000E0,1.745329238E-3,7.347836159E-3,-7.246606797E-2
3.512851000E0,2.652900526E-3,8.901178837E-3,-7.229153812E-2
3.516851000E0,3.508111695E-3,8.691739291E-3,-7.330382615E-2
3.520851000E0,3.124139272E-3,8.813912980E-3,-7.356562465E-2
3.524851000E0,3.316125600E-3,6.265731994E-3,-7.438593358E-2
3.528851000E0,2.321287990E-3,6.510077976E-3,-7.368779927E-2
3.532851000E0,2.059488557E-3,4.014257342E-3,-7.487462461E-2
3.536851000E0,1.082104165E-3,1.710422686E-3,-7.351326942E-2
3.540851000E0,3.839724232E-4,-6.981316983E-5,-7.316420227E-2
3.544851000E0,2.094395168E-4,-2.670353744E-3,-7.276277989E-2
3.548851000E0,-2.792526793E-4,-3.473205259E-3,-7.161086053E-2
3.552851000E0,-1.308996929E-3,-2.356194425E-3,-6.906268001E-2
3.556851000E0,-2.949606394E-3,-6.091198884E-3,-6.567674130E-2
3.560851000E0,-1.256637042E-3,-7.243116386E-3,-6.373942643E-2
3.564851000E0,-1.570796361E-3,-5.427973811E-3,-6.098180264E-2
3.568851000E0,-1.343903481E-3,-5.864306353E-3,-5.665338784E-2
3.572851000E0,-1.291543595E-3,-3.420845373E-3,-5.295328796E-2
3.576851000E0,3.665191471E-4,-2.024581889E-3,-4.778711498E-2
3.580851000E0,-2.443460980E-4,-1.570796303E-4,-4.283038154E-2
3.584851000E0,9.250245057E-4,9.250245057E-4,-3.640756756E-2
3.588851000E0,1.099557383E-3,1.658062800E-3,-3.097959422E-2
3.592851000E0,1.134464052E-3,3.804817796E-3,-2.473131567E-2
3.596851000E0,9.948377265E-4,4.660028964E-3,-1.815142483E-2
3.600851000E0,2.094395168E-4,3.543018363E-3,-1.026253588E-2
3.604851000E0,0.000000000E0,3.996803891E-3,-4.590216093E-3
3.608851000E0,-3.647738136E-3,5.462880712E-3,1.850049011E-3
3.612851000E0,-1.431170036E-3,6.894050632E-3,6.684611086E-3
3.616851000E0,1.675516134E-3,5.323254038E-3,1.307251584E-2
3.620851000E0,9.948377265E-4,5.061454605E-3,1.834340952E-2
3.624851000E0,5.061454722E-4,3.490658477E-3,2.258456126E-2
3.628851000E0,8.377580671E-4,3.979350906E-3,2.804744057E-2
3.632851000E0,3.141592606E-4,5.462880712E-3,3.143338114E-2
3.636851000E0,1.396263367E-3,4.485496320E-3,3.666936606E-2
3.640851000E0,6.108652451E-4,5.899212789E-3,4.014257342E-2
3.644851000E0,1.605702913E-3,5.358160939E-3,4.572762549E-2
3.648851000E0,1.117010717E-3,8.831365965E-3,4.974188283E-2
3.652851000E0,2.042035107E-3,6.126105785E-3,5.349434167E-2
3.656851000E0,3.490658492E-5,9.634217247E-3,5.703736097E-2
3.660851000E0,1.605702913E-3,5.742133129E-3,6.005677953E-2
3.664851000E0,1.134464052E-3,8.168140426E-3,6.551966071E-2
3.668851000E0,8.377580671E-4,6.859143730E-3,6.724753231E-2
3.672851000E0,4.712388909E-4,6.806783844E-3,6.979571283E-2
3.676851000E0,-5.061454722E-4,2.146754880E-3,7.347836345E-2
3.680851000E0,-4.712388909E-4,2.565633971E-3,7.805112749E-2
3.684851000E0,-1.570796303E-4,1.797689125E-3,8.105309308E-2
3.688851000E0,-8.377580671E-4,3.979350906E-3,8.318239450E-2
3.692851000E0,-2.617993741E-4,4.415682983E-3,8.435176313E-2
3.696851000E0,-7.155850180E-4,6.928957067E-3,8.689994365E-2
3.700851000E0,1.274090377E-3,4.293509759E-3,8.772024512E-2
3.704851000E0,7.330382941E-4,3.420845373E-3,9.063494951E-2
3.708851000E0,-8.901178953E-4,1.570796361E-3,9.276425093E-2
3.712851000E0,-2.373647876E-3,1.954768784E-3,9.527752548E-2
3.716851000E0,-9.599310579E-4,-4.537856148E-4,9.396852553E-2
3.720851000E0,-2.234021435E-3,5.235987483E-4,9.573131055E-2
3.724851000E0,-1.221730490E-3,-1.431170036E-3,9.513789415E-2
3.728851000E0,-2.164208330E-3,2.792526793E-4,9.604547173E-2
3.732854125E0,-4.206243437E-3,3.595378250E-3,9.477137774E-2
3.736851000E0,-1.151917269E-3,-3.490658492E-5,9.519025683E-2
3.740851000E0,-1.082104165E-3,4.258603323E-3,9.213592857E-2
3.744851000E0,-1.675516134E-3,9.896016680E-3,9.225810319E-2
3.748851000E0,4.014257283E-4,6.265731994E-3,9.152506292E-2
3.752851000E0,5.061454722E-4,3.036872949E-3,8.847074211E-2
3.756851000E0,5.410520826E-4,1.762782573E-3,8.332201838E-2
3.760851000E0,-2.757620299E-3,9.843656793E-3,8.241444826E-2
3.764851000E0,1.640609466E-3,3.246312495E-3,7.827802002E-2
3.768851000E0,1.134464052E-3,1.797689125E-3,7.508406043E-2
3.772851000E0,9.948377265E-4,6.806784077E-4,6.974335760E-2
3.776851000E0,1.117010717E-3,5.201081280E-3,6.698573381E-2
3.780851000E0,5.515240598E-3,3.979350906E-3,5.965535343E-2
3.784851000E0,2.443460980E-3,9.058258496E-3,5.337216705E-2
3.788851000E0,5.393067375E-3,6.806783844E-3,4.600688070E-2
3.792851000E0,7.243116386E-3,5.585053470E-3,3.926990926E-2
3.796851000E0,5.445427261E-3,7.993607782E-3,3.164282069E-2
3.800851000E0,3.473205259E-3,8.482299745E-3,2.288126573E-2
3.804851000E0,4.171337001E-3,-2.792526793E-4,1.502728462E-2
3.808851000E0,2.844886621E-3,-3.159045940E-3,8.621926419E-3
3.812851000E0,3.089232836E-3,-4.974188283E-3,1.535889693E-3
3.816851000E0,2.705260413E-3,-2.722713631E-3,-3.612831468E-3
3.820851000E0,4.118977115E-3,-3.804817796E-3,-9.773843922E-3
3.824851000E0,3.420845373E-3,1.326450263E-3,-1.469567232E-2
3.828851000E0,3.246312495E-3,1.012290944E-3,-1.839577034E-2
3.832854125E0,6.370451767E-3,3.473205259E-3,-2.069960535E-2
3.836851000E0,6.126105785E-3,6.684611086E-3,-2.462659590E-2
3.840851000E0,7.120943163E-3,6.475171540E-3,-2.939134464E-2
3.844851000E0,5.427973811E-3,7.609635592E-3,-3.337069601E-2
3.848851000E0,9.180432186E-3,1.031489577E-2,-3.529055789E-2
3.852851000E0,9.564404376E-3,1.855284907E-2,-3.715806082E-2
3.856851000E0,1.087340154E-2,1.394518092E-2,-4.035201296E-2
3.860851000E0,5.061454605E-3,7.452555932E-3,-4.269075394E-2
3.864851000E0,3.054326167E-3,-7.155850064E-3,-4.434881732E-2
3.868851000E0,-7.330382941E-4,-5.131267942E-3,-4.689699784E-2
3.872851000E0,1.692969352E-3,-1.192059834E-2,-4.846779257E-2
3.876851000E0,3.420845373E-3,-6.841690745E-3,-5.052728206E-2
3.880851000E0,4.590216093E-3,-7.853981806E-4,-5.361651629E-2
3.884851000E0,7.923794910E-3,3.001966281E-3,-5.503023043E-2
3.888851000E0,5.166174378E-3,7.923794910E-3,-5.208062381E-2
3.892851000E0,9.128072299E-3,5.131267942E-3,-5.297074094E-2
3.896851000E0,5.794493016E-3,8.918632753E-3,-5.215043947E-2
3.900851000E0,9.302604944E-3,4.188789986E-3,-4.968952388E-2
3.904851000E0,6.143558770E-3,6.876597181E-3,-4.602433369E-2
3.908851000E0,5.759586580E-3,1.396263367E-3,-4.372049868E-2
3.912851000E0,6.108652335E-3,1.221730490E-4,-4.040437192E-2
3.916851000E0,6.510077976E-3,1.431170036E-3,-3.728023171E-2
3.920851000E0,6.457718089E-3,2.111848444E-3,-3.134611249E-2
3.924851000E0,7.819075137E-3,2.984513063E-3,-2.649409883E-2
3.928851000E0,7.993607782E-3,9.302604944E-3,-2.296853252E-2
3.932851000E0,6.405358203E-3,8.203047328E-3,-1.918116771E-2
3.936851000E0,5.375613924E-3,2.652900526E-3,-1.595230959E-2
3.940851000E0,6.457718089E-3,5.934119690E-4,-1.359611470E-2
3.944851000E0,-1.029744279E-3,3.682644805E-3,-1.254891697E-2
3.948851000E0,4.607669078E-3,2.356194425E-3,-7.138396613E-3
3.952851000E0,9.005898610E-3,8.918632753E-3,-2.862340072E-3
3.956851000E0,9.634217247E-3,2.801253460E-2,-2.059488557E-3
3.960851000E0,1.933824830E-2,1.984439418E-2,6.981316837E-4
3.964851000E0,1.569050923E-2,2.389355749E-2,6.073745899E-3
3.968851000E0,9.599311277E-3,2.724459022E-2,9.756390937E-3
3.972851000E0,8.779006079E-3,-3.787364578E-3,1.340412907E-2
3.976851000E0,0.000000000E0,-1.570796361E-3,1.918116771E-2
3.980851000E0,5.934119225E-3,-1.459095255E-2,2.476622164E-2
3.984851000E0,4.066617228E-3,-5.881759338E-3,3.101450019E-2
3.988851000E0,2.809980186E-3,-1.134464052E-3,3.792600334E-2
3.992851000E0,5.061454605E-3,2.146754880E-3,4.499458894E-2
3.996851000E0,3.804817796E-3,1.101302728E-2,5.120795965E-2
4.000851000E0,8.325220086E-3,6.544984877E-3,5.974261835E-2
4.004851000E0,1.371828746E-2,1.151917316E-2,6.302383542E-2
4.008851000E0,4.258603323E-3,1.228711754E-2,7.019714266E-2
4.012851000E0,6.928957067E-3,8.499753661E-3,7.374016196E-2
4.016851000E0,5.218534265E-3,1.012290921E-2,7.810348272E-2
4.020851000E0,7.487462368E-3,2.862340072E-3,8.136724681E-2
4.024851000E0,5.410520826E-4,6.352998316E-3,8.356636763E-2
4.028851000E0,5.044001620E-3,7.138396613E-3,8.548622578E-2
4.032851000E0,7.295476273E-3,7.627088577E-3,8.916886896E-2
4.036851000E0,5.148721393E-3,1.003564335E-2,9.147270769E-2
4.040851000E0,5.951572675E-3,7.644542027E-3,9.417796880E-2
4.044851000E0,7.679448463E-3,3.857177682E-3,9.864600748E-2
4.048851000E0,8.115780540E-3,3.630284918E-3,1.035852879E-1
4.052851000E0,8.098327555E-3,1.213003788E-2,1.056098714E-1
4.056851000E0,4.921828397E-3,1.574287005E-2,1.091528907E-1
4.060851000E0,5.899212789E-3,1.137954649E-2,1.162563786E-1
4.064851000E0,3.752457909E-3,8.464846760E-3,1.214051023E-1
4.068851000E0,2.286381321E-3,5.934119690E-4,1.266759932E-1
4.072851000E0,2.792526735E-3,1.727875904E-3,1.324181259E-1
4.076851000E0,2.809980186E-3,3.490658477E-3,1.366243660E-1
4.080851000E0,1.413716702E-3,9.738937020E-3,1.408655196E-1
4.084851000E0,2.897246508E-3,1.431170013E-2,1.462062299E-1
4.088851000E0,2.792526735E-3,1.270599663E-2,1.498365104E-1
4.092851000E0,4.153883550E-3,8.761553094E-3,1.512502283E-1
4.096851000E0,3.892084118E-3,1.528908405E-2,1.514596790E-1
4.100851000E0,4.433136433E-3,1.459095255E-2,1.510582417E-1
4.104851000E0,1.850049011E-3,1.094321441E-2,1.500634104E-1
4.108851000E0,0.000000000E0,6.230825558E-3,1.490511149E-1
4.112851000E0,-4.886921961E-4,1.518436475E-3,1.462236792E-1
4.116851000E0,-7.679448463E-4,2.565633971E-3,1.435358822E-1
4.120851000E0,1.099557383E-3,3.577925032E-3,1.399579495E-1
4.124851000E0,-5.235987919E-5,1.319468953E-2,1.370781660E-1
4.128851000E0,3.839724232E-3,9.669124149E-3,1.331686229E-1
4.132855687E0,1.867502346E-3,1.087340154E-2,1.303411871E-1
4.136851000E0,-7.504915702E-4,1.010545623E-2,1.279500872E-1
4.140851000E0,-1.830850355E-2,2.350958437E-2,1.283689588E-1
4.144851000E0,6.736970972E-3,-2.661627159E-2,1.269901544E-1
4.148851000E0,-1.464331243E-2,8.098327555E-3,1.270774156E-1
4.152851000E0,-4.502949305E-3,-1.745329246E-5,1.282991469E-1
4.156851000E0,-2.391101094E-3,7.243116386E-3,1.325228512E-1
4.160851000E0,1.850049011E-3,9.075712413E-3,1.354549974E-1
4.164851000E0,1.378810150E-3,1.513200440E-2,1.401150376E-1
4.168851000E0,-2.722713631E-3,2.185152285E-2,1.467472762E-1
4.172851000E0,2.879793290E-3,5.113814492E-3,1.493827254E-1
4.176851000E0,-5.462880712E-3,6.963863503E-3,1.544267386E-1
4.180851000E0,-5.986479111E-3,6.527531426E-3,1.628392190E-1
4.184851000E0,-3.124139272E-3,-1.204277156E-3,1.671327353E-1
4.188851000E0,1.553343027E-3,-1.047197497E-3,1.706582904E-1
4.192851000E0,3.490658419E-4,1.680752076E-2,1.769938320E-1
4.196851000E0,5.166174378E-3,1.438151300E-2,1.798561811E-1
4.200851000E0,3.839724232E-4,1.797689125E-2,1.809033751E-1
4.204851000E0,-8.203047328E-4,9.110618383E-3,1.835737228E-1
4.208851000E0,-5.672320258E-3,9.215338156E-3,1.848827302E-1
4.212851000E0,-1.064650831E-3,3.665191354E-3,1.873261929E-1
4.216851000E0,-2.268928103E-3,9.581857361E-3,1.915673316E-1
4.220851000E0,-9.424777818E-4,1.431170013E-2,1.984090358E-1
4.224851000E0,-1.221730490E-4,1.328195538E-2,2.039417177E-1
4.228851000E0,-1.134464052E-3,1.179842558E-2,2.099107504E-1
4.232851000E0,-3.193952609E-3,1.459095255E-2,2.149372995E-1
4.236851000E0,-3.124139272E-3,1.003564335E-2,2.177472711E-1
4.240851000E0,-7.033676840E-3,1.155408006E-2,2.201383710E-1
4.244851000E0,-8.639379404E-3,7.888888009E-3,2.215171903E-1
4.248851000E0,-2.080432512E-2,1.024508290E-2,2.200685591E-1
4.252851000E0,-8.796459064E-3,-5.201081280E-3,2.196845859E-1
4.256851000E0,-8.325220086E-3,-5.410520826E-3,2.176250964E-1
4.260851000E0,-6.003932562E-3,-2.059488557E-3,2.140820920E-1
4.264851000E0,-7.295476273E-3,3.717551241E-3,2.098409384E-1
4.268851000E0,-8.272860199E-3,-1.937315450E-3,2.066295296E-1
4.272851000E0,-4.433136433E-3,-4.834562074E-3,2.002241760E-1
4.276851000E0,-7.382742595E-3,-8.726646192E-4,1.931381375E-1
4.280851000E0,-4.363323096E-3,-2.129301662E-3,1.869247556E-1
4.284851000E0,-4.485496320E-3,3.263765713E-3,1.813920736E-1
4.288851000E0,-2.111848444E-3,8.133234456E-3,1.730319411E-1
4.292851000E0,1.047197497E-3,1.347394194E-2,1.664694995E-1
4.296851000E0,2.042035107E-3,1.605702937E-2,1.558928043E-1
4.300851000E0,2.740166849E-3,2.141519077E-2,1.455953717E-1
4.304851000E0,4.729842301E-3,2.206096239E-2,1.326799244E-1
4.308851000E0,8.866272867E-3,1.890191622E-2,1.184729487E-1
4.312851000E0,7.679448463E-3,1.944296807E-2,1.006182283E-1
4.316851000E0,7.819075137E-3,1.385791413E-2,8.316493779E-2
4.320851000E0,6.213372108E-3,6.230825558E-3,6.401867419E-2
4.324851000E0,5.166174378E-3,3.316125658E-4,4.230678082E-2
4.328851000E0,6.981316837E-4,-8.569566533E-3,2.099631168E-2
4.332851000E0,-3.159045940E-3,-1.706931926E-2,2.949606394E-3
4.336851000E0,-3.874630900E-3,-2.244493365E-2,-1.665044017E-2
4.340851000E0,-5.270894151E-3,-2.068215236E-2,-3.289945796E-2
4.344854125E0,-3.665191354E-3,-1.857030392E-2,-4.782202095E-2
4.348854125E0,-1.291543595E-3,-1.530653704E-2,-6.194173545E-2
4.352851000E0,1.413716702E-3,-7.539822254E-3,-7.677703351E-2
4.356851000E0,5.445427261E-3,6.213372108E-3,-8.515461534E-2
4.360851000E0,1.008800324E-2,2.019345947E-2,-9.320057929E-2
4.364851000E0,1.418952644E-2,3.256784379E-2,-9.908234328E-2
4.368851000E0,1.494001877E-2,3.913028166E-2,-1.045103148E-1
4.372851000E0,1.754055917E-2,4.187044874E-2,-1.077391729E-1
4.376851000E0,1.731366664E-2,4.694935679E-2,-1.108284071E-1
4.380851000E0,1.546361670E-2,3.761184588E-2,-1.145110503E-1
4.384851000E0,5.183627829E-3,1.710422710E-2,-1.178795397E-1
4.388851000E0,-1.239183708E-3,-8.255407214E-3,-1.207069680E-1
4.392851000E0,-4.590216093E-3,-1.820378378E-2,-1.238485649E-1
4.396851000E0,-3.647738136E-3,-1.808161102E-2,-1.257335246E-1
4.400851000E0,-6.806784077E-4,-6.754423957E-3,-1.277231872E-1
4.404851000E0,3.368485486E-3,4.764748737E-3,-1.295906901E-1
4.408851000E0,5.951572675E-3,1.740093343E-2,-1.305331737E-1
4.412851000E0,1.172861271E-2,2.778564207E-2,-1.330289990E-1
4.416851000E0,1.399754081E-2,2.794272080E-2,-1.370083392E-1
4.420851000E0,9.791296907E-3,1.474803220E-2,-1.414938420E-1
4.424851000E0,2.792526735E-3,4.363323096E-4,-1.462760419E-1
4.428851000E0,8.203047328E-4,-1.169370580E-2,-1.496445239E-1
4.432851000E0,2.426007763E-3,-1.279326342E-2,-1.526290476E-1
4.436851000E0,4.188789986E-3,-4.764748737E-3,-1.559626162E-1
4.440851000E0,7.068583276E-3,1.675516134E-3,-1.566781998E-1
4.444851000E0,1.021017600E-2,6.824237294E-3,-1.576206833E-1
4.448851000E0,1.015781611E-2,5.602506921E-3,-1.563465893E-1
4.452851000E0,6.352998316E-3,1.972222002E-3,-1.564862132E-1
4.456851000E0,3.717551241E-3,-2.879793290E-3,-1.540951133E-1
4.460851000E0,3.333578818E-3,-2.338741207E-3,-1.513898522E-1
4.464851000E0,3.822271014E-3,1.919862116E-4,-1.478119344E-1
4.468851000E0,4.415682983E-3,4.764748737E-3,-1.417556405E-1
4.472851000E0,4.869468510E-3,1.137954649E-2,-1.350710243E-1
4.476851000E0,6.038838997E-3,1.041961554E-2,-1.289449185E-1
4.480851000E0,5.148721393E-3,6.981316954E-3,-1.226966456E-1
4.484851000E0,3.246312495E-3,1.431170036E-3,-1.159422249E-1
4.488851000E0,3.351032268E-3,-1.361356815E-3,-1.111600175E-1
4.492851000E0,6.702064537E-3,9.075712296E-4,-1.078264415E-1
4.496851000E0,1.027998887E-2,6.754423957E-3,-1.043881401E-1
4.500851000E0,1.270599663E-2,1.326450240E-2,-1.022937447E-1
4.504851000E0,1.396263391E-2,1.377064735E-2,-1.014385372E-1
4.508851000E0,1.186823845E-2,9.965829551E-3,-1.012116447E-1
4.512851000E0,1.101302728E-2,3.263765713E-3,-1.010022014E-1
4.516851000E0,1.034980267E-2,-5.759586347E-4,-1.027649865E-1
4.520851000E0,8.377579972E-3,4.886921961E-4,-1.041263416E-1
4.524851000E0,1.055924222E-2,2.600540640E-3,-1.061334684E-1
4.528851000E0,1.188569237E-2,3.892084118E-3,-1.095194072E-1
4.532855687E0,1.207767799E-2,4.398229532E-3,-1.135511175E-1
4.536851000E0,1.274090353E-2,3.159045940E-3,-1.186823919E-1
4.540851000E0,1.078613475E-2,6.003932562E-3,-1.237787530E-1
4.544851000E0,1.043706853E-2,4.188789986E-3,-1.291718185E-1
4.548851000E0,1.064650808E-2,1.448623254E-3,-1.340412796E-1
4.552851000E0,1.206022501E-2,1.186823938E-3,-1.368163526E-1
4.556851000E0,1.363102160E-2,1.274090377E-3,-1.388933063E-1
4.560851000E0,1.614429615E-2,4.590216093E-3,-1.400452256E-1
4.564851000E0,1.921607554E-2,1.211258490E-2,-1.400277615E-1
4.568851000E0,2.167698927E-2,1.584758982E-2,-1.401848495E-1
4.572851000E0,2.755874954E-2,1.565560326E-2,-1.412844062E-1
4.576851000E0,3.049090132E-2,2.366666496E-2,-1.373574138E-1
4.580851000E0,1.511455141E-2,4.211479425E-2,-1.331511736E-1
4.584851000E0,8.587019518E-3,8.185594343E-3,-1.307077110E-1
4.588851000E0,-7.312929723E-3,-1.960004680E-2,-1.278104633E-1
4.592851000E0,-2.234021435E-3,-5.038765445E-2,-1.255589873E-1
4.596851000E0,-6.789330859E-3,-5.297074094E-2,-1.243547052E-1
4.600851000E0,-7.068583276E-3,-4.583234712E-2,-1.233075112E-1
4.604851000E0,-1.724385284E-2,-2.720968239E-2,-1.270774156E-1
4.608851000E0,-1.944296807E-2,-2.401573025E-2,-1.300270259E-1
4.612851000E0,-1.774999872E-2,-2.998475730E-2,-1.309520602E-1
4.616851000E0,-1.972221956E-2,-2.972295694E-2,-1.307426095E-1
4.620851000E0,-1.932079531E-2,-2.951351739E-2,-1.282816976E-1
4.624851000E0,-1.953023486E-2,-2.658136375E-2,-1.226791963E-1
4.628851000E0,-8.761553094E-3,-2.612757869E-2,-1.130798832E-1
4.632851000E0,-3.490658419E-4,-2.452187613E-2,-1.029046103E-1
4.636851000E0,3.001966281E-3,-8.290314116E-3,-9.075712413E-2
4.640851000E0,6.894050632E-3,2.227040194E-2,-7.887142897E-2
4.644851000E0,1.244419720E-2,4.621632025E-2,-6.674139202E-2
4.648851000E0,1.537635084E-2,6.270968169E-2,-5.152212083E-2
4.652851000E0,2.323033288E-2,5.272639543E-2,-3.447025269E-2
4.656851000E0,1.581268385E-2,2.406809106E-2,-1.947787404E-2
4.660851000E0,1.064650831E-3,-1.441641990E-2,-5.480333697E-3
4.664851000E0,-1.150172018E-2,-3.307398781E-2,6.579891313E-3
4.668851000E0,-1.089085452E-2,-3.099704720E-2,2.085668407E-2
4.672851000E0,-6.492624991E-3,-1.855284907E-2,3.556980938E-2
4.676851000E0,1.256637042E-3,-6.422811653E-3,5.085889250E-2
4.680851000E0,2.094394993E-3,1.673770696E-2,6.401867419E-2
4.684851000E0,4.555309191E-3,2.221804112E-2,7.693411410E-2
4.688851000E0,2.443460980E-4,2.211332135E-2,8.798204362E-2
4.692851000E0,-1.221730490E-4,5.550147034E-3,9.749408811E-2
4.696851000E0,-3.822271014E-3,-6.318091881E-3,1.061334684E-1
4.700851000E0,-4.049163777E-3,-6.859143730E-3,1.108109504E-1
4.704851000E0,-1.239183708E-3,-4.572762642E-3,1.138303727E-1
4.708851000E0,2.932153177E-3,5.934119225E-3,1.147728488E-1
4.712851000E0,5.986479111E-3,1.846558414E-2,1.125911921E-1
4.716851000E0,1.008800324E-2,2.293362655E-2,1.115788966E-1
4.720851000E0,1.041961554E-2,2.759365551E-2,1.075471863E-1
4.724851000E0,7.347836159E-3,1.373574138E-2,1.055924222E-1
4.728851000E0,1.396263367E-3,-8.831365965E-3,1.032885835E-1
4.732851000E0,-4.485496320E-3,-2.151990868E-2,1.008625776E-1
4.736851000E0,-4.084070213E-3,-2.827433310E-2,1.000946313E-1
4.740851000E0,-4.101523664E-3,-2.251474746E-2,1.021366641E-1
4.744851000E0,-3.525565146E-3,-1.947787404E-2,1.067443341E-1
4.748851000E0,-5.061454722E-4,-1.720894687E-2,1.109505817E-1
4.752851000E0,-1.064650831E-3,-9.843656793E-3,1.158200502E-1
4.756851000E0,3.263765713E-3,-7.120943163E-3,1.234122291E-1
4.760851000E0,6.387905218E-3,-6.806783844E-3,1.297477782E-1
4.764851000E0,1.605702913E-3,1.335176919E-2,1.350186765E-1
4.768851000E0,5.183627829E-3,2.085668407E-2,1.425585002E-1
4.772851000E0,1.319468953E-2,1.469567232E-2,1.463458538E-1
4.776851000E0,1.363102160E-2,2.132792398E-2,1.464156657E-1
4.780851000E0,1.087340154E-2,3.768165782E-2,1.465902030E-1
4.784851000E0,1.392772701E-2,4.483750835E-2,1.439373046E-1
4.788851000E0,1.277581044E-2,2.410299703E-2,1.326973885E-1
4.792851000E0,5.689773243E-3,1.130973361E-2,1.205848008E-1
4.796851000E0,1.884955564E-3,-1.029744279E-3,1.073377505E-1
4.800851000E0,1.343903481E-3,-1.886700839E-2,8.990190923E-2
4.804851000E0,-5.096361507E-3,-1.329940930E-2,7.239625603E-2
4.808851000E0,-1.832595677E-3,-1.076868176E-2,5.414011329E-2
4.812851000E0,8.203047328E-4,-4.380776547E-3,3.371975943E-2
4.816851000E0,5.881759338E-3,-3.490658477E-3,1.544616371E-2
4.820851000E0,5.253441166E-3,4.555309191E-3,-1.029744279E-3
4.824851000E0,4.468042869E-3,1.179842558E-2,-2.024581842E-2
4.828851000E0,2.775073517E-3,3.892084118E-3,-3.850196302E-2
4.832851000E0,3.525565146E-3,-6.283185445E-3,-5.335471407E-2
4.836851000E0,-6.108652451E-4,-1.001818944E-2,-6.791076064E-2
4.840851000E0,-2.024581889E-3,-2.827433404E-3,-8.358381689E-2
4.844851000E0,5.619960371E-3,-6.405358203E-3,-9.793042392E-2
4.848851000E0,1.378810150E-3,6.841690745E-3,-1.097812131E-1
4.852851000E0,9.197885171E-3,1.989675453E-3,-1.244594306E-1
4.856851000E0,1.754055917E-2,-9.477137588E-3,-1.397485137E-1
4.860851000E0,1.673770696E-2,2.792526735E-3,-1.516865641E-1
4.864851000E0,2.055997774E-2,8.813912980E-3,-1.624901593E-1
4.868851000E0,2.216568217E-2,1.572541706E-2,-1.725257933E-1
4.872851000E0,3.010693006E-2,1.638864167E-2,-1.838704348E-1
4.876851000E0,3.160791099E-2,1.904154196E-2,-1.948136538E-1
4.880851000E0,2.247984149E-2,2.042035200E-2,-2.021789402E-1
4.884851000E0,1.305506285E-2,7.173303049E-3,-2.122320384E-1
4.888851000E0,2.897246508E-3,-4.956734832E-3,-2.195275128E-1
4.892851000E0,3.996803891E-3,-2.485348843E-2,-2.272767723E-1
4.896851000E0,1.033234876E-2,-2.361430414E-2,-2.367015481E-1
4.900851000E0,1.483529899E-2,-9.599310579E-4,-2.462136000E-1
4.904851000E0,2.445206232E-2,8.534659632E-3,-2.562317848E-1
4.908851000E0,1.612684131E-2,1.886700839E-2,-2.651678622E-1
4.912851000E0,1.452113967E-2,1.239183708E-3,-2.747148275E-1
4.916851000E0,9.162978269E-3,-1.029744279E-2,-2.803696990E-1
4.920851000E0,8.953538723E-3,-2.413790300E-2,-2.863561809E-1
4.924851000E0,1.041961554E-2,-2.145009674E-2,-2.894279361E-1
4.928851000E0,1.064650808E-2,-5.375613924E-3,-2.906845808E-1
4.932854125E0,1.431170013E-2,4.537856206E-3,-2.905449569E-1
4.936851000E0,1.617920212E-2,6.510077976E-3,-2.918713987E-1
4.940851000E0,1.876228862E-2,6.108652335E-3,-2.890614271E-1
4.944851000E0,2.516764775E-2,8.011061698E-3,-2.887647152E-1
4.948851000E0,1.663298719E-2,6.108652451E-4,-2.926219106E-1
4.952851000E0,1.010545623E-2,2.495820867E-3,-2.883633077E-1
4.956851000E0,3.270747140E-2,-2.199114859E-2,-2.897770107E-1
4.960851000E0,1.663298719E-2,-7.504915702E-4,-2.886599898E-1
4.964851000E0,1.600466855E-2,5.026548170E-3,-2.874557376E-1
4.968851000E0,1.303760987E-2,4.171337001E-3,-2.913652658E-1
4.972851000E0,5.724680144E-3,1.867502369E-2,-2.908765674E-1
4.976851000E0,1.288053021E-2,-8.307767101E-3,-2.954144180E-1
4.980851000E0,1.551597659E-2,-1.492256485E-2,-2.996206582E-1
4.984851000E0,1.438151300E-2,-6.667157635E-3,-3.020641208E-1
4.988851000E0,7.923794910E-3,-7.679448463E-4,-3.049613833E-1
4.992851000E0,1.312487572E-2,-5.829399452E-3,-3.067765236E-1
4.996851000E0,1.513200440E-2,-3.874630900E-3,-3.078411818E-1
5.000851000E0,1.411971357E-2,-6.492624991E-3,-3.087312877E-1
5.004851000E0,1.523672417E-2,-1.157153305E-2,-3.055024445E-1
5.008851000E0,1.324704941E-2,-5.794493016E-3,-3.028495312E-1
5.012851000E0,1.694714651E-2,4.852015525E-3,-2.973342836E-1
5.016851000E0,2.347467840E-2,1.579522900E-2,-2.907893062E-1
5.020851000E0,2.279400080E-2,1.350884791E-2,-2.839476168E-1
5.024851000E0,1.462585945E-2,4.345869645E-3,-2.755525708E-1
5.028851000E0,1.473057922E-2,7.330382941E-4,-2.671924531E-1
5.032851000E0,1.961750165E-2,5.951572675E-3,-2.588497698E-1
5.036851000E0,1.424188633E-2,8.569566533E-3,-2.509259880E-1
5.040851000E0,1.014036313E-2,-3.717551241E-3,-2.437701374E-1
5.044851000E0,3.176499158E-3,-1.200786512E-2,-2.360208780E-1
5.048851000E0,1.832595677E-3,-2.356194519E-2,-2.300867587E-1
5.052851000E0,5.532693584E-3,-1.481784508E-2,-2.220756859E-1
5.056851000E0,1.570796408E-2,-1.396263367E-3,-2.171189636E-1
5.060851000E0,1.352630183E-2,2.094395086E-2,-2.131221592E-1
5.064851000E0,2.110103145E-2,2.042035200E-2,-2.083050460E-1
5.068851000E0,1.584758982E-2,1.865756884E-2,-2.031388730E-1
5.072851000E0,8.447393775E-3,-1.338667516E-2,-1.978854239E-1
5.076851000E0,8.761553094E-3,-3.085742146E-2,-1.885479242E-1
5.080851000E0,6.911503617E-3,-1.146681327E-2,-1.767669469E-1
5.084851000E0,1.076868176E-2,-4.852015525E-3,-1.661728024E-1
5.088851000E0,6.841690745E-3,6.440265104E-3,-1.513724029E-1
5.092851000E0,5.323254038E-3,4.049163777E-3,-1.359087825E-1
5.096851000E0,7.068583276E-3,-1.108284108E-2,-1.187871099E-1
5.100851000E0,4.939281847E-3,-7.330382708E-3,-1.010720134E-1
5.104851000E0,7.260569837E-3,-5.235987919E-5,-8.260643482E-2
5.108851000E0,7.400196046E-3,1.480039209E-2,-6.333799660E-2
5.112851000E0,1.047197543E-2,2.001892589E-2,-4.340633750E-2
5.116851000E0,5.096361507E-3,1.764527895E-2,-2.693043090E-2
5.120851000E0,-8.028514567E-4,3.735004691E-3,-1.073377486E-2
5.124851000E0,-1.801179722E-2,1.445132587E-2,4.450589418E-3
5.128851000E0,-5.044001620E-3,-2.384119667E-2,1.684242673E-2
5.132851000E0,-1.911135577E-2,-1.101302728E-2,3.001966327E-2
5.136851000E0,-8.045967668E-3,-1.434660610E-2,4.263839498E-2
5.140851000E0,-7.225662936E-3,2.129301662E-3,5.614724010E-2
5.144851000E0,-1.954768784E-3,2.635447076E-3,6.887069345E-2
5.148851000E0,-6.370451767E-3,7.173303049E-3,8.300785720E-2
5.152851000E0,-3.996803891E-3,-6.126105785E-3,9.468410909E-2
5.156851000E0,-6.318091881E-3,-1.061160211E-2,1.099208370E-1
5.160851000E0,-5.323254038E-3,-1.125737373E-2,1.224697530E-1
5.164851000E0,-2.321287990E-3,-5.899212789E-3,1.392947286E-1
5.168851000E0,8.552113432E-4,3.316125658E-4,1.545139998E-1
5.172851000E0,3.141592606E-4,9.791296907E-3,1.691747606E-1
5.176851000E0,-8.377580671E-4,1.314232964E-2,1.818807572E-1
5.180851000E0,-5.393067375E-3,6.230825558E-3,1.931730360E-1
5.184851000E0,-2.949606394E-3,-6.894050632E-3,2.031912357E-1
5.188851000E0,-6.527531426E-3,-1.902408898E-3,2.148325741E-1
5.192851000E0,-2.949606394E-3,3.019419499E-3,2.216393650E-1
5.196851000E0,-2.914699726E-3,1.244419720E-2,2.271720618E-1
5.200851000E0,-9.424777818E-4,2.138028294E-2,2.307150662E-1
5.204854125E0,6.108652451E-4,1.452113967E-2,2.370506227E-1
5.208854125E0,-4.537856206E-3,7.155850064E-3,2.415710241E-1
5.212854125E0,-7.557275705E-3,-3.019419499E-3,2.445555329E-1
5.216854125E0,-9.075712413E-3,-7.208209950E-3,2.454980165E-1
5.220854125E0,-6.771877408E-3,-3.909537569E-3,2.488839477E-1
5.224854125E0,-7.208209950E-3,5.235987483E-4,2.512924969E-1
5.228854125E0,-1.350884791E-2,-6.370451767E-3,2.547657192E-1
5.232854125E0,-2.869321220E-2,-3.797836602E-2,2.592861056E-1
5.236854125E0,-3.356268257E-2,-1.162040234E-1,2.633178234E-1
5.240854125E0,-6.141813472E-2,-1.806590259E-1,2.642428577E-1
5.244854125E0,-9.091419727E-2,-2.213601023E-1,2.554289401E-1
5.248854125E0,-9.405579418E-2,-2.310990393E-1,2.504198253E-1
5.252854125E0,-8.208283782E-2,-2.129999846E-1,2.449220568E-1
5.256854125E0,-5.485569686E-2,-1.509709805E-1,2.416582853E-1
5.260854125E0,-2.247984149E-2,-5.225515738E-2,2.442762852E-1
5.264854125E0,9.005898610E-3,3.988077492E-2,2.430021912E-1
5.268854125E0,3.645992652E-2,1.122595742E-1,2.423738688E-1
5.272854125E0,5.117305368E-2,1.466251165E-1,2.431069165E-1
5.276854125E0,4.988151044E-2,1.449146867E-1,2.425484061E-1
5.280854125E0,3.645992652E-2,1.105840579E-1,2.407507151E-1
5.284854125E0,1.232202444E-2,4.803146049E-2,2.384817898E-1
5.288854125E0,-1.143190637E-2,-1.991420612E-2,2.357765287E-1
5.292854125E0,-3.462733328E-2,-7.033676654E-2,2.332632542E-1
5.296854125E0,-4.506440088E-2,-1.019795910E-1,2.324604094E-1
5.300854125E0,-4.867723212E-2,-1.042310596E-1,2.293886244E-1
5.304854125E0,-3.832742944E-2,-8.403760195E-2,2.281319797E-1
5.308854125E0,-2.028072625E-2,-4.038691893E-2,2.273640335E-1
5.312854125E0,-8.028514567E-4,9.110618383E-3,2.268579006E-1
5.316854125E0,1.389282104E-2,5.030038953E-2,2.264215648E-1
5.320854125E0,2.525491454E-2,7.312929630E-2,2.263168395E-1
5.324854125E0,2.597049996E-2,7.483971864E-2,2.237163037E-1
5.328854125E0,1.576032303E-2,5.482079089E-2,2.204874456E-1
5.332857250E0,2.111848444E-3,2.188642882E-2,2.176774591E-1
5.336854125E0,-1.197295822E-2,-1.633628085E-2,2.140995413E-1
5.340854125E0,-2.378883772E-2,-4.845033959E-2,2.106088847E-1
5.344851000E0,-3.033382259E-2,-6.736970693E-2,2.062281072E-1
5.348851000E0,-2.947861142E-2,-6.569419056E-2,2.044827789E-1
5.352851000E0,-2.188642882E-2,-4.958480224E-2,2.023709267E-1
5.356851000E0,-1.176351868E-2,-2.370157093E-2,2.000147253E-1
5.360851000E0,-1.151917269E-3,4.101523664E-3,1.974491030E-1
5.364851000E0,8.674286306E-3,3.169517964E-2,1.937664598E-1
5.368851000E0,1.411971357E-2,4.792674258E-2,1.899441779E-1
5.372851000E0,1.507964451E-2,4.855506122E-2,1.838355362E-1
5.376851000E0,1.125737373E-2,3.921754658E-2,1.765225977E-1
5.380851000E0,4.694935866E-3,2.172934823E-2,1.667836607E-1
5.384851000E0,-3.473205259E-3,4.520402756E-3,1.562767774E-1
5.388851000E0,-9.372417815E-3,-1.589994878E-2,1.431344450E-1
5.392851000E0,-1.542871073E-2,-2.996730246E-2,1.284387857E-1
5.396851000E0,-1.685987972E-2,-3.260274976E-2,1.132893190E-1
5.400851000E0,-1.422443334E-2,-2.439970337E-2,9.761626273E-2
5.404851000E0,-9.162978269E-3,-9.756390937E-3,8.087855577E-2
5.408851000E0,-2.426007763E-3,5.044001620E-3,6.417575479E-2
5.412851000E0,7.138396613E-3,2.019345947E-2,4.808381945E-2
5.416851000E0,1.219985168E-2,3.347541392E-2,3.258529678E-2
5.420851000E0,1.682497375E-2,4.026474431E-2,1.680752076E-2
5.424851000E0,1.443387289E-2,3.553490341E-2,4.118977115E-3
5.428851000E0,6.876597181E-3,2.935643867E-2,-7.609635592E-3
5.432851000E0,3.857177682E-3,1.389282104E-2,-1.759291813E-2
5.436851000E0,3.490658419E-4,6.632251316E-4,-2.727949619E-2
5.440851000E0,-1.605702913E-3,-1.043706853E-2,-3.522074595E-2
5.444851000E0,-6.178465672E-3,-1.651081443E-2,-4.241150245E-2
5.448851000E0,-4.956734832E-3,-1.853539608E-2,-4.954989627E-2
5.452851000E0,-2.094394993E-3,-1.108284108E-2,-5.427974090E-2
5.456851000E0,1.954768784E-3,-2.827433404E-3,-5.941100791E-2
5.460851000E0,5.131267942E-3,9.407324716E-3,-6.422811747E-2
5.464851000E0,1.092576142E-2,1.876228862E-2,-6.757915020E-2
5.468851000E0,1.364847459E-2,2.649409883E-2,-6.995279342E-2
5.472851000E0,1.043706853E-2,2.654645778E-2,-7.087782025E-2
5.476851000E0,7.190756500E-3,1.797689125E-2,-7.082545757E-2
5.480851000E0,9.250245057E-4,6.859143730E-3,-6.960373372E-2
5.484851000E0,-3.106686054E-3,-6.719517522E-3,-6.688101590E-2
5.488851000E0,-8.377579972E-3,-1.387536712E-2,-6.134832278E-2
5.492851000E0,-7.644542027E-3,-1.801179722E-2,-5.419247225E-2
5.496851000E0,-6.248278543E-3,-1.200786512E-2,-4.433136433E-2
5.500851000E0,-2.268928103E-3,-3.961897455E-3,-3.153809905E-2
5.504851000E0,2.617993741E-4,-4.886921961E-4,-1.827359758E-2
5.508851000E0,-5.585053586E-4,-2.775073517E-3,-4.258603323E-3
5.512851000E0,-5.305801053E-3,-1.221730467E-2,9.756390937E-3
5.516851000E0,-9.546951391E-3,-2.193878777E-2,2.289872058E-2
5.520851000E0,-1.321214251E-2,-2.912954427E-2,3.761184588E-2
5.524854125E0,-1.612684131E-2,-3.115412779E-2,5.213298276E-2
5.528854125E0,-1.343903504E-2,-2.912954427E-2,6.991788745E-2
5.532851000E0,-1.181587856E-2,-2.017600648E-2,8.962265402E-2
5.536851000E0,-6.440265104E-3,-1.315978263E-2,1.072504818E-1
5.540851000E0,-3.961897455E-3,-3.351032268E-3,1.277930140E-1
5.544854125E0,-1.221730490E-3,2.268928074E-4,1.463982165E-1
5.548851000E0,-6.457717973E-4,3.595378250E-3,1.639038622E-1
5.552851000E0,-1.570796361E-3,9.948377265E-4,1.798910797E-1
5.556851000E0,-6.003932562E-3,-4.328416660E-3,1.968731433E-1
5.560851000E0,-1.048942842E-2,-1.218239777E-2,2.127381861E-1
5.564851000E0,-1.272345055E-2,-1.755801216E-2,2.260550410E-1
5.568851000E0,-1.207767799E-2,-1.761037298E-2,2.397558838E-1
5.572851000E0,-1.553343050E-2,-1.097812131E-2,2.534218132E-1
5.576851000E0,-9.791296907E-3,-1.396263391E-2,2.638937831E-1
5.580851000E0,-9.983283468E-3,-2.024581889E-3,2.744704783E-1
5.584851000E0,-7.295476273E-3,5.218534265E-3,2.859547436E-1
5.588851000E0,-3.455751808E-3,1.467821933E-2,2.960253060E-1
5.592851000E0,1.902408898E-3,2.570869960E-2,3.060260415E-1
5.596851000E0,2.862340072E-3,3.537782282E-2,3.140545487E-1
5.600851000E0,2.949606394E-3,3.352777660E-2,3.230604529E-1
5.604851000E0,1.780235791E-3,2.972295694E-2,3.318918049E-1
5.608851000E0,-3.630284918E-3,2.588323317E-2,3.382622600E-1
5.612851000E0,-2.478367416E-3,9.354964830E-3,3.433760703E-1
5.616851000E0,-8.517206647E-3,5.829399452E-3,3.457671702E-1
5.620851000E0,-1.113520097E-2,3.822271014E-3,3.447374403E-1
5.624851000E0,-1.260127686E-2,-2.216568217E-3,3.438647687E-1
5.628851000E0,-9.913469665E-3,1.518436475E-3,3.385240734E-1
5.632851000E0,-1.708677411E-2,2.970550396E-2,3.339512944E-1
5.636851000E0,-3.909537569E-3,-1.797689125E-3,3.285582364E-1
5.640851000E0,-2.087413706E-2,2.509783395E-2,3.212802112E-1
5.644851000E0,-1.398008689E-2,3.420845373E-3,3.099006712E-1
5.648851000E0,-2.572615258E-2,4.118977115E-3,2.975960970E-1
5.652851000E0,-3.260274976E-2,2.221804112E-2,2.910860181E-1
5.656851000E0,-5.305801053E-3,-3.157300502E-2,2.764427066E-1
5.660851000E0,-2.298598550E-2,-4.049163777E-3,2.665990293E-1
5.664851000E0,-6.021386012E-3,-1.893682219E-2,2.554463744E-1
5.668851000E0,-4.468042869E-3,1.061160211E-2,2.448696941E-1
5.672851000E0,3.595378250E-3,2.181661502E-2,2.341359109E-1
5.676851000E0,6.771877408E-3,3.255039081E-2,2.223025858E-1
5.680851000E0,8.796459064E-3,2.347467840E-2,2.124414742E-1
5.684851000E0,4.660028964E-3,1.670280099E-2,2.041337043E-1
5.688851000E0,-1.745329209E-4,1.118756086E-2,1.941678822E-1
5.692851000E0,-1.308996929E-3,-5.253441166E-3,1.831199378E-1
5.696851000E0,-6.684611086E-3,-2.375393175E-2,1.748296320E-1
5.700851000E0,-1.310742274E-2,-3.499384969E-2,1.636246145E-1
5.704851000E0,-1.048942842E-2,-2.857103944E-2,1.554564834E-1
5.708851000E0,-1.457349956E-2,-1.855284907E-2,1.412669420E-1
5.712851000E0,-1.206022501E-2,-8.203047328E-3,1.315454692E-1
5.716851000E0,-8.517206647E-3,4.345869645E-3,1.142667085E-1
5.720851000E0,-1.745329238E-3,-5.515240598E-3,9.965830296E-2
5.724851000E0,-1.108284108E-2,2.113593742E-2,8.669050038E-2
5.728851000E0,6.859143730E-3,-3.193952609E-3,7.412413508E-2
5.732852562E0,-3.071779385E-3,2.151990868E-2,5.775294453E-2
5.736851000E0,5.934119225E-3,-6.352998316E-3,4.550073296E-2
5.740851000E0,-3.001966281E-3,3.211405827E-3,3.387684003E-2
5.744851000E0,4.572762642E-3,-6.614797749E-3,2.150245570E-2
5.748851000E0,-6.056292448E-3,1.157153305E-2,5.777040031E-3
5.752851000E0,6.614797749E-3,-1.237438433E-2,-8.813912980E-3
5.756851000E0,-6.806784077E-4,8.220500313E-3,-2.122320421E-2
5.760851000E0,7.260569837E-3,8.552113548E-3,-3.317870945E-2
5.764851000E0,9.983283468E-3,2.471386269E-2,-4.668755829E-2
5.768851000E0,1.352630183E-2,2.113593742E-2,-5.639158934E-2
5.772851000E0,1.041961554E-2,1.398008689E-2,-6.794566661E-2
5.776851000E0,1.546361670E-2,6.981316837E-4,-8.059930801E-2
5.780851000E0,-4.276056774E-3,1.139700040E-2,-9.457939118E-2
5.784851000E0,-3.106686054E-3,-1.158898603E-2,-1.052957103E-1
5.788851000E0,-2.750638872E-2,3.979350626E-2,-1.205498874E-1
5.792851000E0,-4.380776547E-3,-1.584758982E-2,-1.419127136E-1
5.796851000E0,-2.535963431E-2,1.425934024E-2,-1.579697430E-1
5.800851000E0,-6.422811653E-3,-5.092870817E-2,-1.772032827E-1
5.804851000E0,-2.076941729E-2,-9.599311277E-3,-1.988104582E-1
5.808851000E0,7.853982039E-3,-2.097885683E-2,-2.242922634E-1
5.812851000E0,7.033676840E-3,1.406735368E-2,-2.478193045E-1
5.816851000E0,1.120501384E-2,1.329940930E-2,-2.730393112E-1
5.820851000E0,1.932079531E-2,8.726646192E-3,-3.011565506E-1
5.824851000E0,1.836086437E-2,2.659881860E-2,-3.267081678E-1
5.828851000E0,2.614503168E-2,1.392772701E-2,-3.512824178E-1
5.832851000E0,1.169370604E-3,1.759291813E-2,-3.674790859E-1
5.836851000E0,1.605702937E-2,-3.855432197E-2,-3.806039393E-1
5.840851000E0,-4.869468510E-3,2.630211227E-2,-3.505668342E-1
5.844851000E0,2.513274178E-2,1.008800324E-2,-3.669380248E-1
5.848851000E0,1.649336144E-2,2.666863054E-2,-3.902381659E-1
5.852851000E0,2.001892589E-2,-6.806784077E-4,-4.062079191E-1
5.856851000E0,1.843067631E-2,-3.148574010E-2,-4.394389987E-1
5.860851000E0,2.809980186E-3,-1.926843449E-2,-4.512897730E-1
5.864851000E0,8.761553094E-3,-4.914847016E-2,-4.627740383E-1
5.868851000E0,7.853982039E-3,-4.085815698E-2,-4.682020247E-1
5.872851000E0,1.233947743E-2,-4.241150245E-2,-4.724606276E-1
5.876851000E0,2.230530791E-2,-3.454006463E-2,-4.770333767E-1
5.880851000E0,1.570796408E-2,9.267698042E-3,-4.818505049E-1
5.884851000E0,3.096214123E-2,3.595378250E-3,-4.889714420E-1
5.888851000E0,2.462659590E-2,1.043706853E-2,-4.950451851E-1
5.892851000E0,2.138028294E-2,-4.049163777E-3,-4.999321103E-1
5.896851000E0,1.897172816E-2,-2.272418700E-2,-5.088856220E-1
5.900851000E0,5.759586580E-3,-2.253220044E-2,-5.172457695E-1
5.904851000E0,1.623156248E-3,-3.021164984E-2,-5.227435827E-1
5.908851000E0,5.166174378E-3,-3.352777660E-2,-5.271766782E-1
5.912851000E0,8.691739291E-3,-2.375393175E-2,-5.269846916E-1
5.916851000E0,1.499237865E-2,-1.031489577E-2,-5.203175545E-1
5.920851000E0,2.780309506E-2,-3.089232836E-3,-5.181184411E-1
5.924851000E0,2.481858246E-2,1.869247667E-2,-5.110673308E-1
5.928851000E0,6.698573381E-2,-4.686209187E-2,-5.030562282E-1
5.932851000E0,2.546435408E-2,2.291617356E-2,-4.890936017E-1
5.936851000E0,2.656391077E-2,-2.611012571E-2,-4.789532423E-1
5.940851000E0,9.267698042E-3,-5.722934753E-2,-4.657934606E-1
5.944851000E0,5.724680144E-3,-5.768313259E-2,-4.512199759E-1
5.948851000E0,1.912880875E-2,-5.920156837E-2,-4.419871867E-1
5.952851000E0,-2.460914198E-3,-7.871435024E-3,-4.237833917E-1
5.956851000E0,1.268854365E-2,-3.841469809E-2,-4.104665220E-1
5.960851000E0,6.143558770E-3,-2.218313515E-2,-3.976558149E-1
5.964851000E0,7.696901914E-3,-2.055997774E-2,-3.864682615E-1
5.968851000E0,6.492624991E-3,-2.127556317E-2,-3.709348142E-1
5.972851000E0,-2.111848444E-3,-3.403392062E-2,-3.540749550E-1
5.976851000E0,-4.817108624E-3,-5.187118426E-2,-3.419972658E-1
5.980851000E0,-3.246312495E-3,-5.921902135E-2,-3.260798752E-1
5.984851000E0,-8.237954229E-3,-4.881685972E-2,-3.080506027E-1
5.988851000E0,-8.534659632E-3,-4.604178667E-2,-2.898119092E-1
5.992851000E0,-1.797689125E-3,-4.148647562E-2,-2.710670829E-1
5.996851000E0,4.118977115E-3,-2.350958437E-2,-2.520080805E-1
6.000851000E0,8.429939859E-3,2.600540640E-3,-2.289872020E-1
6.004851000E0,1.431170013E-2,1.509709843E-2,-2.110975683E-1
6.008851000E0,1.589994878E-2,2.820452116E-2,-1.897172928E-1
6.012851000E0,1.537635084E-2,1.905899495E-2,-1.709026396E-1
6.016851000E0,7.435102481E-3,1.267109066E-2,-1.495921761E-1
6.020851000E0,4.886921961E-3,-5.235987919E-5,-1.274788529E-1
6.024851000E0,-4.188790335E-4,-1.092576142E-2,-1.054527909E-1
6.028851000E0,-4.799655639E-3,-2.535963431E-2,-8.555603772E-2
6.032851000E0,-8.674286306E-3,-2.898991853E-2,-6.485643238E-2
6.036851000E0,-8.185594343E-3,-2.359685116E-2,-4.382521659E-2
6.040851000E0,-3.211405827E-3,-1.663298719E-2,-2.131047100E-2
6.044851000E0,-2.792526793E-4,-3.647738136E-3,-6.981316837E-4
6.048851000E0,3.490658477E-3,4.502949305E-3,2.031563222E-2
6.052851000E0,6.422811653E-3,1.150172018E-2,4.040437192E-2
6.056851000E0,6.457718089E-3,1.268854365E-2,6.159266829E-2
6.060851000E0,1.029744279E-3,8.045967668E-3,8.503244072E-2
6.064851000E0,-2.024581889E-3,-4.450589418E-3,1.064999923E-1
6.068851000E0,-5.829399452E-3,-1.509709843E-2,1.286482215E-1
6.072851000E0,-8.639379404E-3,-1.937315427E-2,1.491907388E-1
6.076851000E0,-7.103490178E-3,-1.837831736E-2,1.707979143E-1
6.080851000E0,-6.248278543E-3,-1.300270297E-2,1.923701912E-1
6.084851000E0,-5.445427261E-3,-3.316125600E-3,2.139773667E-1
6.088851000E0,-8.552113432E-4,3.857177682E-3,2.332981676E-1
6.092851000E0,-5.585053586E-4,1.535889693E-2,2.521826327E-1
6.096851000E0,1.308996929E-3,2.138028294E-2,2.690075934E-1
6.100851000E0,1.500983140E-3,2.776818909E-2,2.842268646E-1
6.104851000E0,1.535889693E-3,2.522000670E-2,3.000919223E-1
6.108851000E0,3.490658419E-4,2.289872058E-2,3.149097562E-1
6.112851000E0,-1.448623254E-3,1.506219152E-2,3.281044364E-1
6.116851000E0,-4.921828397E-3,7.452555932E-3,3.408802450E-1
6.120851000E0,-7.487462368E-3,-1.902408898E-3,3.521899879E-1
6.124851000E0,-9.826203808E-3,-6.894050632E-3,3.616147637E-1
6.128851000E0,-9.669124149E-3,-9.861109778E-3,3.711442649E-1
6.132857250E0,-9.791296907E-3,-6.876597181E-3,3.793473244E-1
6.136851000E0,-8.464846760E-3,-4.276056774E-3,3.879517913E-1
6.140851000E0,-7.819075137E-3,-2.967059845E-4,3.932226896E-1
6.144851000E0,-9.145525284E-3,4.345869645E-3,3.973067403E-1
6.148851000E0,-7.243116386E-3,4.660028964E-3,4.018271565E-1
6.152851000E0,-8.691739291E-3,5.637413356E-3,4.025602043E-1
6.156851000E0,-6.981316954E-3,4.398229532E-3,4.027347267E-1
6.160851000E0,-4.869468510E-3,9.023352526E-3,4.011464715E-1
6.164851000E0,-2.670353744E-3,1.492256485E-2,3.986157477E-1
6.168851000E0,-2.234021435E-3,1.748819835E-2,3.946363926E-1
6.172851000E0,-2.426007763E-3,1.818633080E-2,3.904476166E-1
6.176851000E0,-3.071779385E-3,1.322959550E-2,3.863286376E-1
6.180851000E0,1.396263367E-3,3.054326167E-3,3.833092153E-1
6.184851000E0,-1.605702913E-3,-3.036872949E-3,3.793473244E-1
6.188851000E0,-9.354964830E-3,-1.080358773E-2,3.789284229E-1
6.192851000E0,-1.286307629E-2,-1.991420612E-2,3.785095513E-1
6.196851000E0,-1.603957638E-2,-2.319542505E-2,3.778114319E-1
6.200851000E0,-1.687733456E-2,-2.448697016E-2,3.779161274E-1
6.204851000E0,-1.347394194E-2,-1.806415804E-2,3.790156841E-1
6.208851000E0,-9.564404376E-3,-1.005309634E-2,3.803421557E-1
6.212851000E0,-5.096361507E-3,8.901178953E-4,3.825063705E-1
6.216851000E0,-2.565633971E-3,8.272860199E-3,3.823143840E-1
6.220851000E0,-1.466076588E-3,1.500983164E-2,3.815115094E-1
6.224851000E0,-1.780235791E-3,1.677261479E-2,3.813020885E-1
6.228851000E0,-2.757620299E-3,1.706931926E-2,3.795916438E-1
6.232851000E0,-3.141592606E-4,1.911135577E-2,3.740240633E-1
6.236851000E0,1.064650831E-3,2.474876866E-2,3.665540516E-1
6.240851000E0,1.727875904E-3,3.661700711E-2,3.581241071E-1
6.244851000E0,6.876597181E-3,4.619886354E-2,3.478092253E-1
6.248851000E0,1.122246683E-2,5.515240505E-2,3.347192407E-1
6.252851000E0,1.281071641E-2,5.585053563E-2,3.195872307E-1
6.256851000E0,8.866272867E-3,4.714134336E-2,3.058340549E-1
6.260851000E0,3.316125600E-3,2.516764775E-2,2.926219106E-1
6.264851000E0,-7.592182141E-3,-4.502949305E-3,2.793923020E-1
6.268851000E0,-1.511455141E-2,-2.970550396E-2,2.675065994E-1
6.272851000E0,-2.024581842E-2,-4.621632025E-2,2.564412355E-1
6.276851000E0,-2.022836544E-2,-4.872959107E-2,2.481334656E-1
6.280851000E0,-1.555088349E-2,-3.748967126E-2,2.455329150E-1
6.284851000E0,-1.373574138E-2,-1.600466855E-2,2.350260317E-1
6.288851000E0,2.565633971E-3,-2.042035107E-3,2.326174825E-1
6.292851000E0,4.956734832E-3,2.982767671E-2,2.297376841E-1
6.296851000E0,1.391027402E-2,4.092797264E-2,2.270149738E-1
6.300851000E0,1.487020496E-2,4.885176569E-2,2.222502232E-1
6.304851000E0,1.315978263E-2,3.930481523E-2,2.190562785E-1
6.308851000E0,5.951572675E-3,2.520255372E-2,2.105390728E-1
6.312851000E0,1.047197497E-3,7.679448463E-4,2.053030729E-1
6.316851000E0,-8.028514683E-3,-8.621926419E-3,1.980774105E-1
6.320851000E0,-8.761553094E-3,-2.022836544E-2,1.898743659E-1
6.324851000E0,-8.639379404E-3,-1.651081443E-2,1.789835095E-1
6.328851000E0,-3.804817796E-3,-6.649704650E-3,1.699950695E-1
6.332851000E0,2.408554312E-3,5.846852902E-3,1.568003744E-1
6.336851000E0,7.644542027E-3,2.611012571E-2,1.438849419E-1
6.340851000E0,1.384046115E-2,3.338814899E-2,1.284736842E-1
6.344851000E0,1.487020496E-2,4.216715321E-2,1.145110503E-1
6.348851000E0,1.375319436E-2,3.864159063E-2,9.958848357E-2
6.352851000E0,9.878563695E-3,2.502802201E-2,8.740609139E-2
6.356851000E0,2.809980186E-3,1.186823845E-2,7.641051710E-2
6.360851000E0,-3.508111695E-3,-7.679448463E-3,6.675884128E-2
6.364851000E0,-1.059414819E-2,-1.172861271E-2,6.019640714E-2
6.368851000E0,-1.153662615E-2,-1.443387289E-2,5.380849913E-2
6.372851000E0,-8.761553094E-3,-1.213003788E-2,5.033529550E-2
6.376851000E0,-8.063420653E-3,-5.340707488E-3,4.808381945E-2
6.380851000E0,-2.583087189E-3,4.817108624E-3,4.253367335E-2
6.384851000E0,4.712388909E-4,2.015855350E-2,3.836233541E-2
6.388851000E0,3.385938704E-3,2.007128671E-2,3.246312216E-2
6.392851000E0,1.431170036E-3,2.005383372E-2,2.581341937E-2
6.396851000E0,1.082104165E-3,9.058258496E-3,1.745329238E-2
6.400851000E0,-2.914699726E-3,1.064650831E-3,7.295476273E-3
6.404851000E0,-7.120943163E-3,-1.272345055E-2,-3.769911127E-3
6.408851000E0,-1.047197543E-2,-2.523746155E-2,-1.539380383E-2
6.412851000E0,-1.195550524E-2,-3.118903376E-2,-2.518510073E-2
6.416851000E0,-1.233947743E-2,-3.080506064E-2,-3.406882659E-2
6.420851000E0,-9.878563695E-3,-2.452187613E-2,-4.045673087E-2
6.424851000E0,-4.415682983E-3,-1.401499379E-2,-4.572762549E-2
6.428851000E0,2.967059845E-4,6.108652451E-4,-4.785692692E-2
6.432851000E0,6.195918657E-3,1.679006778E-2,-4.991641641E-2
6.436851000E0,1.179842558E-2,2.958333120E-2,-4.820599407E-2
6.440851000E0,1.296779606E-2,4.132939503E-2,-4.714134336E-2
6.444851000E0,1.596976258E-2,4.848524556E-2,-4.145156965E-2
6.448851000E0,1.781981252E-2,5.153957382E-2,-3.515093029E-2
6.452851000E0,1.617920212E-2,4.647811875E-2,-2.687807009E-2
6.456851000E0,1.396263391E-2,3.972369432E-2,-1.916371472E-2
6.460851000E0,6.161012221E-3,3.344050795E-2,-7.208209950E-3
6.464851000E0,2.443460980E-3,2.279400080E-2,2.216568217E-3
6.468851000E0,-4.345869645E-3,1.502728462E-2,1.474803220E-2
6.472851000E0,-3.438298590E-3,-3.804817796E-3,2.736676298E-2
6.476851000E0,-5.899212789E-3,6.981316983E-5,4.164355621E-2
6.480851000E0,-1.431170036E-3,-4.886921961E-4,5.213298276E-2
6.484851000E0,-1.047197543E-2,3.134611249E-2,6.677629799E-2
6.488851000E0,-3.106686054E-3,3.223622963E-2,7.614871860E-2
6.492851000E0,-6.527531426E-3,3.837978840E-2,8.672541380E-2
6.496851000E0,-7.487462368E-3,2.607521974E-2,9.566149861E-2
6.500851000E0,-9.651671164E-3,2.036799304E-2,1.048942879E-1
6.504851000E0,-1.520181727E-2,1.682497375E-2,1.146855876E-1
6.508851000E0,-1.649336144E-2,7.470009383E-3,1.256637126E-1
6.512851000E0,-2.480112948E-2,6.457717973E-4,1.359087825E-1
6.516851000E0,-2.202605456E-2,-1.434660610E-2,1.455080956E-1
6.520851000E0,-2.504547499E-2,-1.197295822E-2,1.561371535E-1
6.524851000E0,-2.298598550E-2,-3.804817796E-3,1.668883860E-1
6.528851000E0,-1.987930015E-2,8.726646192E-4,1.784250140E-1
6.532852562E0,-1.665044017E-2,9.320057929E-3,1.904677749E-1
6.536851000E0,-1.371828746E-2,1.213003788E-2,1.993166059E-1
6.540851000E0,-1.188569237E-2,2.518510073E-2,2.058441341E-1
6.544851000E0,-9.162978269E-3,3.014183603E-2,2.122145891E-1
6.548851000E0,-1.188569237E-2,3.001966327E-2,2.156703323E-1
6.552851000E0,-1.747074537E-2,1.712168008E-2,2.170491517E-1
6.556851000E0,-1.691224054E-2,2.373647876E-3,2.167873383E-1
6.560851000E0,-2.644173801E-2,5.672320258E-3,2.171713114E-1
6.564851000E0,-2.513274178E-2,-5.550147034E-3,2.144137025E-1
6.568851000E0,-3.188716620E-2,3.281218931E-3,2.117433399E-1
6.572851000E0,-2.883283980E-2,3.769911127E-3,2.077290863E-1
6.576851000E0,-2.953097038E-2,1.473057922E-2,2.051809132E-1
6.580851000E0,-2.384119667E-2,1.549852360E-2,2.016553432E-1
6.584851000E0,-2.415535599E-2,2.080432512E-2,1.986184716E-1
6.588851000E0,-2.305579931E-2,2.055997774E-2,1.939235330E-1
6.592851000E0,-2.515019476E-2,2.015855350E-2,1.910437346E-1
6.596851000E0,-2.961823717E-2,2.007128671E-2,1.859299242E-1
6.600851000E0,-3.700098023E-2,1.424188633E-2,1.812873483E-1
6.604851000E0,-2.244493365E-2,-8.045967668E-3,1.749518067E-1
6.608851000E0,-1.949532703E-2,2.234021435E-3,1.659284532E-1
6.612851000E0,-1.499237865E-2,1.171115879E-2,1.549852341E-1
6.616851000E0,-1.438151300E-2,1.026253588E-2,1.462585926E-1
6.620851000E0,-5.270894151E-3,-1.972222002E-3,1.351233870E-1
6.624851000E0,-6.405358203E-3,1.342158206E-2,1.248259470E-1
6.628851000E0,1.012290944E-3,9.686577134E-3,1.111600175E-1
6.632851000E0,-1.605702913E-3,1.633628085E-2,9.599310905E-2
6.636851000E0,7.504915702E-4,5.497787148E-3,8.286823332E-2
6.640851000E0,-5.567600485E-3,1.083849464E-2,6.920230389E-2
6.644851000E0,-3.438298590E-3,-2.530727303E-3,5.541420355E-2
6.648851000E0,-8.482299745E-3,-3.735004691E-3,4.277801886E-2
6.652851000E0,-9.005898610E-3,-1.235693134E-2,3.104940802E-2
6.656851000E0,-9.616764262E-3,-1.158898603E-2,2.227040194E-2
6.660851000E0,-8.272860199E-3,-4.310963210E-3,1.487020496E-2
6.664851000E0,-3.700098023E-3,5.393067375E-3,7.976154797E-3
6.668851000E0,-4.310963210E-3,2.028072625E-2,2.268928103E-3
6.672851000E0,2.111848444E-3,1.712168008E-2,-1.919862116E-3
6.676851000E0,7.138396613E-3,1.909390278E-2,-4.223696887E-3
6.680851000E0,8.272860199E-3,2.389355749E-2,-1.144936029E-2
6.684851000E0,6.946410518E-3,2.869321220E-2,-1.558579039E-2
6.688851000E0,5.672320258E-3,2.338741161E-2,-2.403318323E-2
6.692851000E0,2.792526735E-3,1.291543618E-2,-3.543018550E-2
6.696851000E0,9.773843922E-4,9.442231618E-3,-4.832816496E-2
6.700851000E0,5.061454722E-4,9.738937020E-3,-6.342526525E-2
6.704851000E0,3.839724232E-4,7.435102481E-3,-8.000589162E-2
6.708851000E0,-2.268928074E-4,5.288347602E-3,-9.789551795E-2
6.712851000E0,7.853981806E-4,4.310963210E-3,-1.151917279E-1
6.716851000E0,3.316125600E-3,4.782202188E-3,-1.333955079E-1
6.720851000E0,3.228859045E-3,9.145525284E-3,-1.512502283E-1
6.724851000E0,3.647738136E-3,5.148721393E-3,-1.727526933E-1
6.728851000E0,2.862340072E-3,2.757620299E-3,-1.926668882E-1
6.732851000E0,2.495820867E-3,9.250245057E-4,-2.150245607E-1
6.736851000E0,1.396263397E-4,-2.827433404E-3,-2.373996824E-1
6.740851000E0,-2.967059845E-4,-9.704031050E-3,-2.599493265E-1
6.744851000E0,-2.530727303E-3,-1.148426626E-2,-2.810329199E-1
6.748851000E0,-4.014257283E-4,-1.633628085E-2,-3.008424044E-1
6.752851000E0,1.396263397E-4,-1.382300723E-2,-3.177371919E-1
6.756851000E0,3.141592722E-3,-1.211258490E-2,-3.334276974E-1
6.760851000E0,3.036872949E-3,-8.045967668E-3,-3.480710089E-1
6.764851000E0,6.457718089E-3,-9.843656793E-3,-3.597123623E-1
6.768851000E0,5.846852902E-3,-8.970992640E-3,-3.698178232E-1
6.772851000E0,5.829399452E-3,-1.324704941E-2,-3.781779408E-1
6.776851000E0,5.689773243E-3,-1.663298719E-2,-3.842691481E-1
6.780851000E0,3.682644805E-3,-1.870992966E-2,-3.890164495E-1
6.784851000E0,3.769911127E-3,-1.565560326E-2,-3.910061121E-1
6.788851000E0,3.944444004E-3,-1.438151300E-2,-3.916693330E-1
6.792851000E0,4.433136433E-3,-1.272345055E-2,-3.892956972E-1
6.796851000E0,6.370451767E-3,-1.076868176E-2,-3.865555227E-1
6.800851000E0,6.440265104E-3,-8.464846760E-3,-3.847927451E-1
6.804851000E0,6.597344764E-3,-6.789330859E-3,-3.819304109E-1
6.808851000E0,5.585053470E-3,-8.779006079E-3,-3.787713647E-1
6.812851000E0,3.665191354E-3,-1.048942842E-2,-3.750887215E-1
6.816851000E0,3.769911127E-3,-1.260127686E-2,-3.706730306E-1
6.820851000E0,3.193952609E-3,-1.193805225E-2,-3.639535010E-1
6.824851000E0,2.129301662E-3,-1.357866172E-2,-3.573736250E-1
6.828851000E0,1.850049011E-3,-1.356120780E-2,-3.511427939E-1
6.832851000E0,2.391101094E-3,-9.634217247E-3,-3.430444598E-1
6.836851000E0,4.625122529E-3,-2.583087189E-3,-3.353650272E-1
6.840851000E0,6.876597181E-3,3.752457909E-3,-3.271968663E-1
6.844851000E0,9.110618383E-3,7.208209950E-3,-3.182782531E-1
6.848851000E0,1.001818944E-2,9.616764262E-3,-3.090454638E-1
6.852851000E0,7.976154797E-3,3.333578818E-3,-3.004584312E-1
6.856851000E0,6.073745899E-3,-8.063420653E-3,-2.903878689E-1
6.860851000E0,-6.806784077E-4,-1.363102160E-2,-2.818881273E-1
6.864851000E0,-5.201081280E-3,-2.246238664E-2,-2.727600634E-1
6.868851000E0,-6.073745899E-3,-2.881538495E-2,-2.625498772E-1
6.872851000E0,-4.782202188E-3,-2.747148275E-2,-2.538581491E-1
6.876851000E0,-1.588249579E-3,-2.426007576E-2,-2.454282045E-1
6.880851000E0,-1.396263397E-4,-2.024581842E-2,-2.345024347E-1
6.884851000E0,3.490658419E-4,-1.801179722E-2,-2.245715111E-1
6.888851000E0,1.396263367E-3,-1.801179722E-2,-2.153561711E-1
6.892851000E0,1.745329209E-4,-2.087413706E-2,-2.066295296E-1
6.896851000E0,-2.548180753E-3,-2.719222941E-2,-1.969953179E-1
6.900851000E0,-7.330382708E-3,-3.621558100E-2,-1.867851317E-1
6.904851000E0,-9.477137588E-3,-4.188790172E-2,-1.772207320E-1
6.908851000E0,-8.377579972E-3,-4.141666368E-2,-1.668883860E-1
6.912851000E0,-7.190756500E-3,-3.150319308E-2,-1.581791937E-1
6.916851000E0,-3.717551241E-3,-2.108357660E-2,-1.485275179E-1
6.920851000E0,4.712388909E-4,-5.585053470E-3,-1.392249167E-1
6.924851000E0,6.387905218E-3,6.876597181E-3,-1.310916841E-1
6.928851000E0,1.050688233E-2,1.420698036E-2,-1.229584441E-1
6.932855687E0,9.913469665E-3,1.235693134E-2,-1.140572652E-1
6.936851000E0,9.599311277E-3,2.548180753E-3,-1.055575162E-1
6.940851000E0,2.146754880E-3,-1.385791413E-2,-9.342747182E-2
6.944851000E0,-8.936085738E-3,-2.598795295E-2,-8.948303014E-2
6.948851000E0,-9.773843922E-3,-4.417428374E-2,-8.018042892E-2
6.952851000E0,-1.478293911E-2,-3.434807807E-2,-7.068583369E-2
6.956851000E0,-5.096361507E-3,-2.546435408E-2,-6.325073540E-2
6.960851000E0,1.762782573E-3,-5.654866807E-3,-5.347688869E-2
6.964851000E0,9.459684603E-3,1.574287005E-2,-4.265584797E-2
6.968851000E0,1.460840553E-2,2.720968239E-2,-3.260274976E-2
6.972851000E0,1.747074537E-2,3.214896470E-2,-2.094395086E-2
6.976851000E0,1.384046115E-2,2.878047898E-2,-9.477137588E-3
6.980851000E0,8.237954229E-3,1.253146399E-2,8.726646192E-4
6.984851000E0,1.640609466E-3,-9.738937020E-3,1.185078546E-2
6.988851000E0,-7.574729156E-3,-3.047344834E-2,2.539454028E-2
6.992851000E0,-1.225221157E-2,-4.597197101E-2,4.141666368E-2
6.996851000E0,-1.151917316E-2,-4.729842395E-2,5.283111706E-2
7.000851000E0,-1.343903504E-2,-3.454006463E-2,6.949900836E-2
7.004851000E0,-4.433136433E-3,-2.687807009E-2,8.422958851E-2
7.008851000E0,-9.634217247E-3,4.502949305E-3,9.801769257E-2
7.012851000E0,8.133234456E-3,9.040805511E-3,1.076344550E-1
7.016851000E0,7.155850180E-4,4.021238536E-2,1.202008277E-1
7.020851000E0,1.216494478E-2,2.654645778E-2,1.278802752E-1
7.024851000E0,5.707226694E-3,2.996730246E-2,1.354200989E-1
7.028851000E0,3.665191354E-3,1.425934024E-2,1.432740837E-1
7.032851000E0,6.283185212E-4,-2.286381321E-3,1.516342014E-1
7.036851000E0,-5.131267942E-3,-7.592182141E-3,1.607448310E-1
7.040851000E0,-6.667157635E-3,-2.357939817E-2,1.703441292E-1
7.044851000E0,-8.691739291E-3,-2.082177810E-2,1.791754961E-1
7.048851000E0,-3.054326167E-3,-2.343977243E-2,1.879370511E-1
7.052851000E0,-1.151917269E-3,-8.587019518E-3,1.994213164E-1
7.056851000E0,5.515240598E-3,8.203047328E-4,2.079734355E-1
7.060851000E0,1.012290921E-2,1.652826741E-2,2.159321308E-1
7.064851000E0,9.965829551E-3,3.176499158E-2,2.217615396E-1
7.068851000E0,1.502728462E-2,2.567379363E-2,2.265961021E-1
7.072851000E0,5.986479111E-3,3.548254445E-2,2.290744632E-1
7.076851000E0,9.913469665E-3,2.005383372E-2,2.289522886E-1
7.080851000E0,3.316125600E-3,1.066396199E-2,2.259154171E-1
7.084851000E0,-1.762782573E-3,3.316125600E-3,2.231577933E-1
7.088851000E0,-1.675516134E-3,-7.958701812E-3,2.159844935E-1
7.092851000E0,-5.759586580E-3,-6.370451767E-3,2.082352340E-1
7.096851000E0,-1.535889693E-3,-1.078613475E-2,2.013935447E-1
7.100851000E0,-1.640609466E-3,-3.490658419E-4,1.910262853E-1
7.104851000E0,-4.886921961E-4,7.661995478E-3,1.782504767E-1
7.108851000E0,6.475171540E-3,7.906341925E-3,1.663298756E-1
7.112851000E0,5.235987715E-3,1.434660610E-2,1.559975296E-1
7.116851000E0,1.125737373E-2,1.085594762E-2,1.430646330E-1
7.120851000E0,6.195918657E-3,1.359611470E-2,1.318770796E-1
7.124851000E0,9.389871731E-3,2.548180753E-3,1.206720620E-1
7.128851000E0,6.318091881E-3,3.577925032E-3,1.115788966E-1
7.132851000E0,8.220500313E-3,-6.073745899E-3,9.866346419E-2
7.136851000E0,3.874630900E-3,-6.300638430E-3,8.958774805E-2
7.140851000E0,3.106686054E-3,-6.475171540E-3,8.180358261E-2
7.144851000E0,-5.445427261E-3,1.080358773E-2,7.239625603E-2
7.148851000E0,6.265731994E-3,-7.312929723E-3,6.389650702E-2
7.152854125E0,-1.368338149E-2,3.246312216E-2,6.230825558E-2
7.156851000E0,1.570796408E-2,-1.581268385E-2,5.407030135E-2
7.160851000E0,-4.712388851E-3,3.330088034E-2,4.769985005E-2
7.164851000E0,2.026327327E-2,6.614797749E-3,3.940953314E-2
7.168851000E0,4.485496320E-3,4.379031062E-2,3.288200125E-2
7.172851000E0,2.082177810E-2,1.949532703E-2,2.186897583E-2
7.176851000E0,1.247910410E-2,3.504621238E-2,1.083849464E-2
7.180851000E0,1.445132587E-2,2.626720443E-2,-2.391101094E-3
7.184851000E0,1.218239777E-2,2.476622164E-2,-1.548107062E-2
7.188851000E0,7.906341925E-3,1.816887781E-2,-2.822197415E-2
7.192851000E0,1.349139493E-2,8.639379404E-3,-4.644321278E-2
7.196851000E0,5.672320258E-3,1.818633080E-2,-6.263986975E-2
7.200851000E0,1.502728462E-2,-3.682644805E-3,-8.012806624E-2
7.204851000E0,4.886921961E-3,9.983283468E-3,-9.489355236E-2
7.208851000E0,1.312487572E-2,-8.482299745E-3,-1.117010713E-1
7.212852562E0,1.404990070E-2,-2.879793290E-3,-1.237612963E-1
7.216851000E0,8.133234456E-3,4.276056774E-3,-1.350361258E-1
7.220851000E0,1.457349956E-2,-1.235693134E-2,-1.467123777E-1
7.224851000E0,6.003932562E-3,2.408554312E-3,-1.548630595E-1
7.228851000E0,1.761037298E-2,-1.434660610E-2,-1.610589772E-1
7.232854125E0,1.148426626E-2,4.555309191E-3,-1.668883860E-1
7.236851000E0,1.300270297E-2,9.267698042E-3,-1.703615934E-1
7.240851000E0,1.886700839E-2,6.649704650E-3,-1.753357798E-1
7.244851000E0,1.253146399E-2,1.523672417E-2,-1.775348932E-1
7.248851000E0,1.827359758E-2,-1.535889693E-3,-1.811128110E-1
7.252851000E0,9.546951391E-3,4.153883550E-3,-1.871691048E-1
7.256851000E0,1.099557430E-2,-1.221730490E-3,-1.920560300E-1
7.260851000E0,8.988445625E-3,1.082104165E-3,-1.964891702E-1
7.264851000E0,1.253146399E-2,-9.948377265E-4,-2.021789402E-1
7.268851000E0,1.270599663E-2,5.951572675E-3,-2.074149251E-1
7.272851000E0,1.919862255E-2,8.552113548E-3,-2.129999846E-1
7.276851000E0,2.274163999E-2,1.520181727E-2,-2.186723053E-1
7.280851000E0,2.075196430E-2,1.506219152E-2,-2.202954590E-1
7.284851000E0,3.021164984E-2,2.094395168E-4,-2.252347320E-1
7.288851000E0,1.869247667E-2,1.078613475E-2,-2.259328663E-1
7.292851000E0,2.345722541E-2,-7.417649496E-3,-2.263866514E-1
7.296851000E0,7.609635592E-3,5.759586347E-4,-2.245715111E-1
7.300851000E0,1.467821933E-2,-1.548107062E-2,-2.191260904E-1
7.304851000E0,1.631882787E-2,-1.942551509E-2,-2.143962383E-1
7.308851000E0,2.949606394E-3,3.665191471E-4,-2.032261342E-1
7.312851000E0,1.474803220E-2,-2.068215236E-2,-1.939933449E-1
7.316851000E0,1.221730490E-3,-2.408554312E-3,-1.829977781E-1
7.320851000E0,1.096066739E-2,-2.106612362E-2,-1.702045053E-1
7.324851000E0,1.745329238E-3,-8.901178953E-4,-1.600990444E-1
7.328851000E0,8.237954229E-3,-3.036872949E-3,-1.508313566E-1
7.332855687E0,4.799655639E-3,7.260569837E-3,-1.419301778E-1
7.336851000E0,8.883725852E-3,1.186823938E-3,-1.348092258E-1
7.340851000E0,4.380776547E-3,4.590216093E-3,-1.281420738E-1
7.344851000E0,5.585053470E-3,-6.527531426E-3,-1.230806187E-1
7.348851000E0,-3.665191471E-4,-5.585053470E-3,-1.178446338E-1
7.352851000E0,-1.047197497E-3,-1.731366664E-2,-1.125737354E-1
7.356851000E0,-4.363323096E-3,-1.396263391E-2,-1.095368639E-1
7.360851000E0,8.901178953E-4,-1.408480667E-2,-1.063429117E-1
7.364851000E0,-1.431170036E-3,2.670353744E-3,-1.014385372E-1
7.368851000E0,6.771877408E-3,-2.809980186E-3,-9.925687313E-2
7.372851000E0,2.775073517E-3,1.661553420E-2,-9.192649275E-2
7.376851000E0,1.029744279E-2,1.253146399E-2,-8.503244072E-2
7.380851000E0,7.766715251E-3,1.476548519E-2,-7.857472450E-2
7.384851000E0,5.881759338E-3,7.086036727E-3,-7.086037099E-2
7.388851000E0,8.901178953E-4,1.448623254E-3,-6.359979510E-2
7.392851000E0,-2.670353744E-3,-7.208209950E-3,-5.612978712E-2
7.396851000E0,-5.846852902E-3,-9.965829551E-3,-4.995132238E-2
7.400851000E0,-5.951572675E-3,-5.829399452E-3,-4.579744115E-2
7.404851000E0,-2.181661548E-3,-1.623156248E-3,-4.260348529E-2
7.408851000E0,7.155850180E-4,7.173303049E-3,-3.860668465E-2
7.412851000E0,2.111848444E-3,1.500983164E-2,-3.516838327E-2
7.416851000E0,5.009094719E-3,1.858775690E-2,-3.139847144E-2
7.420851000E0,6.073745899E-3,1.726130582E-2,-3.162536770E-2
7.424851000E0,5.305801053E-3,1.179842558E-2,-3.063052893E-2
7.428851000E0,1.640609466E-3,3.438298590E-3,-3.082251363E-2
7.432851000E0,-2.932153177E-3,-2.024581889E-3,-3.087487444E-2
7.436851000E0,-3.961897455E-3,-6.789330859E-3,-3.223622963E-2
7.440851000E0,-6.195918657E-3,-7.120943163E-3,-3.169517964E-2
7.444851000E0,-5.410520826E-3,-9.005898610E-3,-3.049090132E-2
7.448851000E0,-4.607669078E-3,-4.991641734E-3,-2.808234841E-2
7.452851000E0,-2.740166849E-3,-1.832595677E-3,-2.384119667E-2
7.456851000E0,-2.408554312E-3,6.283185212E-4,-1.940806210E-2
7.460851000E0,-2.478367416E-3,-4.258603323E-3,-1.345648803E-2
7.464851000E0,-3.996803891E-3,-7.365289610E-3,-8.587019518E-3
7.468854125E0,-4.537856206E-3,-9.232792072E-3,-1.884955564E-3
7.472854125E0,-3.036872949E-3,-5.044001620E-3,3.298672382E-3
7.476851000E0,-8.203047328E-4,-2.443460980E-3,8.709193207E-3
7.480851000E0,-6.981316837E-4,-7.155850180E-4,1.630137488E-2
7.484851000E0,-6.632251316E-4,4.712388909E-4,2.234021388E-2
7.488851000E0,-1.867502346E-3,9.424777818E-4,2.888519876E-2
7.492854125E0,-1.884955564E-3,-3.281218931E-3,3.541272879E-2
7.496851000E0,-3.839724232E-3,-8.604473434E-3,4.314453900E-2
7.500851000E0,-5.410520826E-3,-1.090830751E-2,4.860742018E-2
7.504851000E0,-5.218534265E-3,-1.254891697E-2,5.410520732E-2
7.508851000E0,-6.213372108E-3,-1.029744279E-2,5.824163556E-2
7.512851000E0,-4.677482415E-3,-6.824237294E-3,6.504841894E-2
7.516851000E0,-3.822271014E-3,-2.164208330E-3,6.983062625E-2
7.520851000E0,-8.726646192E-4,1.308996929E-3,7.604399323E-2
7.524851000E0,1.064650831E-3,6.108652335E-3,8.157669008E-2
7.528851000E0,5.410520826E-4,8.883725852E-3,8.723155409E-2
7.532851000E0,-8.028514567E-4,5.689773243E-3,9.412560612E-2
7.536851000E0,-2.495820867E-3,4.398229532E-3,1.008974835E-1
7.540851000E0,-2.199114766E-3,1.518436475E-3,1.085245758E-1
7.544851000E0,-3.612831468E-3,3.752457909E-3,1.172861233E-1
7.548851000E0,-9.773843922E-4,1.500983140E-3,1.255938858E-1
7.552851000E0,-2.251474652E-3,5.707226694E-3,1.357517093E-1
7.556851000E0,-1.221730490E-3,1.710422686E-3,1.456128210E-1
7.560851000E0,-2.914699726E-3,3.054326167E-3,1.566258520E-1
7.564851000E0,-3.054326167E-3,-4.712388909E-4,1.668534726E-1
7.568851000E0,-5.794493016E-3,-9.599310579E-4,1.781108528E-1
7.572851000E0,-6.213372108E-3,-2.129301662E-3,1.873785406E-1
7.576851000E0,-5.724680144E-3,-1.396263367E-3,1.947612911E-1
7.580851000E0,-6.649704650E-3,1.500983140E-3,2.019345909E-1
7.584851000E0,-4.031710327E-3,-1.186823938E-3,2.081828713E-1
7.588851000E0,-6.806783844E-3,-8.377580671E-4,2.126683742E-1
7.592851000E0,-6.178465672E-3,-6.003932562E-3,2.151990980E-1
7.596851000E0,-8.133234456E-3,-1.658062800E-3,2.172062248E-1
7.600851000E0,-6.370451767E-3,-5.166174378E-3,2.163859159E-1
7.604851000E0,-7.871435024E-3,6.963863503E-3,2.151118368E-1
7.608851000E0,1.343903481E-3,1.904154196E-2,2.122320384E-1
7.612851000E0,1.113520097E-2,4.879940674E-2,2.088984549E-1
7.616851000E0,2.466150187E-2,7.799876481E-2,2.065422684E-1
7.620851000E0,3.741985932E-2,1.037772745E-1,2.021614909E-1
7.624851000E0,3.485422581E-2,1.018225104E-1,1.980075985E-1
7.628851000E0,2.649409883E-2,8.066911995E-2,1.929985136E-1
7.632857250E0,8.831365965E-3,4.173082113E-2,1.864360720E-1
7.636851000E0,-5.864306353E-3,-5.445427261E-3,1.814095229E-1
7.640851000E0,-2.188642882E-2,-4.366813600E-2,1.785995364E-1
7.644851000E0,-2.909463830E-2,-7.229153812E-2,1.740965992E-1
7.648851000E0,-3.289945796E-2,-7.059856504E-2,1.730668545E-1
7.652851000E0,-2.143264376E-2,-5.717698485E-2,1.731017530E-1
7.656851000E0,-1.103048120E-2,-1.682497375E-2,1.725083441E-1
7.660851000E0,6.387905218E-3,2.727949619E-2,1.714611501E-1
7.664851000E0,2.134537697E-2,6.784094870E-2,1.683370024E-1
7.668851000E0,2.855358645E-2,9.438740462E-2,1.659982651E-1
7.672851000E0,3.132865950E-2,8.538150787E-2,1.608844548E-1
7.676851000E0,1.389282104E-2,7.302457839E-2,1.553343087E-1
7.680851000E0,5.916666240E-3,2.670353837E-2,1.409527957E-1
7.684851000E0,-9.389871731E-3,-1.413716655E-2,1.315978318E-1
7.688851000E0,-2.155481651E-2,-5.618214980E-2,1.185078546E-1
7.692851000E0,-2.291617356E-2,-8.096582443E-2,1.013687253E-1
7.696851000E0,-2.759365551E-2,-5.904448777E-2,8.548622578E-2
7.700851000E0,-5.113814492E-3,-5.906194076E-2,6.688101590E-2
7.704851000E0,-3.926991019E-3,-8.813912980E-3,5.269148946E-2
7.708851000E0,1.891936921E-2,6.021386012E-3,3.590142354E-2
7.712851000E0,2.326523885E-2,4.122467712E-2,2.038544603E-2
7.716851000E0,3.099704720E-2,4.366813600E-2,7.592182141E-3
7.720851000E0,2.642428502E-2,4.228932783E-2,-4.136430100E-3
7.724851000E0,2.007128671E-2,2.151990868E-2,-1.563815027E-2
7.728851000E0,1.122246683E-2,-2.094395168E-4,-2.675589733E-2
7.732855687E0,-1.483529806E-3,-1.291543618E-2,-3.628539667E-2
7.736851000E0,-2.530727303E-3,-3.419100121E-2,-4.359832406E-2
7.740851000E0,-1.125737373E-2,-2.296853252E-2,-5.030038953E-2
7.744851000E0,1.518436475E-3,-3.288200125E-2,-5.913175642E-2
7.748851000E0,1.274090377E-3,1.745329209E-4,-6.279694289E-2
7.752851000E0,1.860520989E-2,8.883725852E-3,-7.035422325E-2
7.756851000E0,2.185152285E-2,3.815289587E-2,-7.956956327E-2
7.760851000E0,2.834414691E-2,4.216715321E-2,-8.634144068E-2
7.764851000E0,2.933898382E-2,3.296926990E-2,-9.080947936E-2
7.768851000E0,1.361356769E-2,3.459242731E-2,-9.859365225E-2
7.772851000E0,1.495747175E-2,-1.291543595E-3,-1.062032878E-1
7.776851000E0,3.979350906E-3,-9.756390937E-3,-1.110378429E-1
7.780851000E0,1.061160211E-2,-2.940879762E-2,-1.186300293E-1
7.784851000E0,4.712388909E-4,-2.117084339E-2,-1.225570217E-1
7.788851000E0,9.983283468E-3,-1.989675313E-2,-1.274963021E-1
7.792851000E0,1.551597659E-2,5.585053586E-4,-1.343554407E-1
7.796851000E0,2.384119667E-2,2.567379363E-2,-1.372003257E-1
7.800851000E0,3.195697814E-2,4.476769641E-2,-1.428901106E-1
7.804851000E0,2.326523885E-2,6.681120396E-2,-1.478642970E-1
7.808851000E0,3.965387866E-2,3.211405873E-2,-1.556310058E-1
7.812851000E0,1.865756884E-2,3.928736225E-2,-1.604830176E-1
7.816851000E0,2.954842336E-2,-1.958259381E-2,-1.685464382E-1
7.820851000E0,6.719517522E-3,-8.168140426E-3,-1.741140485E-1
7.824851000E0,1.946042106E-2,-4.632103816E-2,-1.817236841E-1
7.828851000E0,3.682644805E-3,-2.680825815E-2,-1.909564734E-1
7.832851000E0,1.443387289E-2,-4.239404574E-2,-1.968033314E-1
7.836851000E0,1.398008689E-2,-2.656391077E-2,-2.048143893E-1
7.840851000E0,2.101376466E-2,-1.401499379E-2,-2.129127085E-1
7.844851000E0,3.000221029E-2,-4.398229532E-3,-2.222502232E-1
7.848851000E0,2.354449220E-2,1.209513191E-2,-2.242399007E-1
7.852851000E0,3.202679008E-2,-3.455751808E-3,-2.307848930E-1
7.856851000E0,2.165953629E-2,5.078908056E-3,-2.318844497E-1
7.860851000E0,3.043854237E-2,-1.624901593E-2,-2.359336019E-1
7.864851000E0,1.391027402E-2,-2.356194425E-3,-2.360906899E-1
7.868851000E0,2.569124661E-2,-3.588397056E-2,-2.382199913E-1
7.872851000E0,1.343903504E-2,-1.776745170E-2,-2.374520451E-1
7.876851000E0,3.125884756E-2,-3.447025269E-2,-2.369284481E-1
7.880851000E0,2.352703735E-2,8.552113548E-3,-2.343977243E-1
7.884851000E0,3.745476529E-2,4.555309191E-3,-2.323556840E-1
7.888851000E0,3.659955412E-2,2.818706818E-2,-2.302089334E-1
7.892851000E0,3.787364438E-2,3.223622963E-2,-2.238908410E-1
7.896851000E0,3.803072497E-2,2.387610450E-2,-2.188119292E-1
7.900851000E0,3.150319308E-2,1.961750165E-2,-2.131046951E-1
7.904851000E0,3.015928902E-2,1.518436475E-3,-2.108706832E-1
7.908851000E0,1.984439418E-2,-1.380555425E-2,-2.071182281E-1
7.912851000E0,1.462585945E-2,-3.214896470E-2,-2.055474222E-1
7.916851000E0,4.956734832E-3,-4.291764647E-2,-2.024232894E-1
7.920851000E0,1.462585945E-2,-5.778785050E-2,-2.003986984E-1
7.924851000E0,7.557275705E-3,-2.604031190E-2,-1.946216673E-1
7.928851000E0,2.145009674E-2,-2.698278986E-2,-1.890191585E-1
7.932851000E0,1.596976258E-2,6.352998316E-3,-1.812698990E-1
7.936851000E0,3.190461919E-2,1.954768784E-3,-1.741140485E-1
7.940851000E0,2.912954427E-2,2.151990868E-2,-1.662251502E-1
7.944851000E0,2.914699912E-2,1.092576142E-2,-1.581442803E-1
7.948851000E0,2.012364566E-2,9.721484035E-3,-1.492780149E-1
7.952851000E0,1.174606569E-2,-1.008800324E-2,-1.380729973E-1
7.956851000E0,3.961897455E-3,-1.649336144E-2,-1.262745708E-1
7.960851000E0,-1.745329238E-3,-2.539454028E-2,-1.120501384E-1
7.964851000E0,-6.283185212E-4,-2.979277074E-2,-9.916960448E-2
7.968851000E0,-5.235987483E-4,-1.867502369E-2,-8.227481693E-2
7.972851000E0,4.188789986E-3,-4.363323096E-3,-6.490879506E-2
7.976851000E0,9.616764262E-3,7.365289610E-3,-5.059709400E-2
7.980851000E0,1.240929123E-2,1.701696031E-2,-3.708824515E-2
7.984851000E0,1.656317525E-2,1.658062823E-2,-2.241002768E-2
7.988851000E0,1.256637089E-2,2.436479554E-2,-9.721484035E-3
7.992851000E0,1.043706853E-2,1.429424621E-2,8.028514567E-4
7.996851000E0,2.076941775E-3,1.563815027E-2,1.137954649E-2
8.000851000E0,1.989675453E-3,-4.241149873E-3,1.836086437E-2
8.004851000E0,-7.644542027E-3,-1.008800324E-2,2.288126573E-2
8.008851000E0,-5.358160939E-3,-2.033308521E-2,2.782054804E-2
8.012851000E0,-8.203047328E-3,-1.155408006E-2,3.181735054E-2
8.016851000E0,-1.274090377E-3,-5.201081280E-3,3.331833705E-2
8.020851000E0,3.071779385E-3,5.916666240E-3,3.445279971E-2
8.024851000E0,7.522369269E-3,1.275835652E-2,3.490658477E-2
8.028851000E0,7.644542027E-3,2.204350755E-2,3.607595712E-2
8.032854125E0,8.115780540E-3,1.982693933E-2,3.427826613E-2
8.036851000E0,5.532693584E-3,1.441641990E-2,3.155555204E-2
8.040851000E0,4.886921961E-4,-1.274090377E-3,2.918190509E-2
8.044851000E0,-6.981316954E-3,-1.577777602E-2,2.509783395E-2
8.048851000E0,-1.164134592E-2,-2.586578019E-2,2.282890677E-2
8.052851000E0,-1.120501384E-2,-3.015928902E-2,2.073451132E-2
8.056851000E0,-1.094321441E-2,-2.661627159E-2,1.642354764E-2
8.060851000E0,-4.537856206E-3,-2.239257470E-2,1.260127686E-2
8.064851000E0,-3.333578818E-3,-8.011061698E-3,1.024508290E-2
8.068851000E0,8.429939859E-3,6.632251316E-4,5.707226694E-3
8.072851000E0,4.991641734E-3,1.500983164E-2,1.518436475E-3
8.076851000E0,6.824237294E-3,1.466076542E-2,-2.408554312E-3
8.080851000E0,1.291543595E-3,8.866272867E-3,-6.003932562E-3
8.084851000E0,5.759586347E-4,8.552113432E-4,-1.054178830E-2
8.088851000E0,-3.787364578E-3,-2.268928103E-3,-1.474803220E-2
8.092851000E0,-3.595378250E-3,-1.090830751E-2,-1.825614460E-2
8.096851000E0,-6.091198884E-3,-9.407324716E-3,-2.066469751E-2
8.100851000E0,-3.141592722E-3,-8.552113548E-3,-2.490584925E-2
8.104851000E0,-2.059488557E-3,-1.117010717E-3,-2.661627159E-2
8.108851000E0,2.111848444E-3,4.886921961E-3,-2.841396071E-2
8.112851000E0,3.979350906E-3,1.502728462E-2,-2.963569015E-2
